{
  "resourceType" : "Bundle",
  "id" : "3dcb5618-3055-406a-9034-1b8fc8de0fea",
  "meta" : {
    "profile" : ["http://medcomfhir.dk/ig/carecommunication/StructureDefinition/medcom-careCommunication-message"]
  },
  "type" : "message",
  "timestamp" : "2024-05-03T09:25:00+02:00",
  "entry" : [{
    "fullUrl" : "https://medcomfhir.dk/ig/carecommunication/MessageHeader/4dff3695-218d-4878-838a-5f23cbba6f82",
    "resource" : {
      "resourceType" : "MessageHeader",
      "id" : "4dff3695-218d-4878-838a-5f23cbba6f82",
      "meta" : {
        "profile" : ["http://medcomfhir.dk/ig/carecommunication/StructureDefinition/medcom-careCommunication-messageHeader"]
      },
      "text" : {
        "status" : "generated",
        "div" : "<div xmlns=\"http://www.w3.org/1999/xhtml\"><a name=\"MessageHeader_4dff3695-218d-4878-838a-5f23cbba6f82\"> </a><p class=\"res-header-id\"><b>Generated Narrative: MessageHeader 4dff3695-218d-4878-838a-5f23cbba6f82</b></p><a name=\"4dff3695-218d-4878-838a-5f23cbba6f82\"> </a><a name=\"hc4dff3695-218d-4878-838a-5f23cbba6f82\"> </a><div style=\"display: inline-block; background-color: #d9e0e7; padding: 6px; margin: 4px; border: 1px solid #8da1b4; border-radius: 5px; line-height: 60%\"><p style=\"margin-bottom: 0px\"/><p style=\"margin-bottom: 0px\">Profile: <a href=\"StructureDefinition-medcom-careCommunication-messageHeader.html\">MedComCareCommunicationMessageHeader</a></p></div><p><b>event</b>: <a href=\"http://medcomfhir.dk/ig/terminology/2.0.1/CodeSystem-medcom-messaging-eventCodes.html#medcom-messaging-eventCodes-care-communication-message\">MedComMessagingEventCodes care-communication-message</a>: Care Communication Message</p><h3>Destinations</h3><table class=\"grid\"><tr><td style=\"display: none\">-</td><td><b>Extension</b></td><td><b>Endpoint</b></td><td><b>Receiver</b></td></tr><tr><td style=\"display: none\">*</td><td/><td><a href=\"https://sor2.sum.dsdn.dk/#id=953741000016009\">https://sor2.sum.dsdn.dk/#id=953741000016009</a></td><td><a href=\"Organization-f20f31cd-5dd2-4a80-ab00-97f7109864a7.html\">Organization Plejecenter Herlev</a></td></tr></table><p><b>sender</b>: <a href=\"Organization-82210440-6826-44fc-9fc8-2a29bab6a5c2.html\">Organization Hjerteafdelingen på Herlev og Gentofte hospital</a></p><h3>Sources</h3><table class=\"grid\"><tr><td style=\"display: none\">-</td><td><b>Endpoint</b></td></tr><tr><td style=\"display: none\">*</td><td><a href=\"https://sor2.sum.dsdn.dk/#id=265161000016000\">https://sor2.sum.dsdn.dk/#id=265161000016000</a></td></tr></table><p><b>focus</b>: <a href=\"Communication-d2b79da8-acda-4985-a8ad-5ed7ec9a2800.html\">Communication: identifier = urn:uuid:b2eb3d0e-5de5-4de9-b2a3-0ff321ad1c3a; status = unknown; category = Undersøgelsessvar; topic = </a></p><p><b>definition</b>: <a href=\"http://medcomfhir.dk/ig/messagedefinitions/1.0.0/MessageDefinition-MedComCareCommunicationMessageDefinitionV5.0.html\">http://medcomfhir.dk/ig/messagedefinitions/MessageDefinition/MedComCareCommunicationMessageDefinition|5.0</a></p></div>"
      },
      "eventCoding" : {
        "system" : "http://medcomfhir.dk/ig/terminology/CodeSystem/medcom-messaging-eventCodes",
        "code" : "care-communication-message"
      },
      "destination" : [{
        "extension" : [{
          "url" : "http://medcomfhir.dk/ig/messaging/StructureDefinition/medcom-messaging-destinationUseExtension",
          "valueCoding" : {
            "system" : "http://medcomfhir.dk/ig/terminology/CodeSystem/medcom-messaging-destinationUse",
            "code" : "primary"
          }
        }],
        "endpoint" : "https://sor2.sum.dsdn.dk/#id=953741000016009",
        "receiver" : {
          "reference" : "Organization/f20f31cd-5dd2-4a80-ab00-97f7109864a7"
        }
      }],
      "sender" : {
        "reference" : "Organization/82210440-6826-44fc-9fc8-2a29bab6a5c2"
      },
      "source" : {
        "endpoint" : "https://sor2.sum.dsdn.dk/#id=265161000016000"
      },
      "focus" : [{
        "reference" : "Communication/d2b79da8-acda-4985-a8ad-5ed7ec9a2800"
      }],
      "definition" : "http://medcomfhir.dk/ig/messagedefinitions/MessageDefinition/MedComCareCommunicationMessageDefinition|5.0"
    }
  },
  {
    "fullUrl" : "https://medcomfhir.dk/ig/carecommunication/Patient/22d65545-f98a-4b4d-ba36-51b48b3eb3de",
    "resource" : {
      "resourceType" : "Patient",
      "id" : "22d65545-f98a-4b4d-ba36-51b48b3eb3de",
      "meta" : {
        "profile" : ["http://medcomfhir.dk/ig/core/StructureDefinition/medcom-core-patient"]
      },
      "text" : {
        "status" : "generated",
        "div" : "<div xmlns=\"http://www.w3.org/1999/xhtml\"><a name=\"Patient_22d65545-f98a-4b4d-ba36-51b48b3eb3de\"> </a><p class=\"res-header-id\"><b>Generated Narrative: Patient 22d65545-f98a-4b4d-ba36-51b48b3eb3de</b></p><a name=\"22d65545-f98a-4b4d-ba36-51b48b3eb3de\"> </a><a name=\"hc22d65545-f98a-4b4d-ba36-51b48b3eb3de\"> </a><div style=\"display: inline-block; background-color: #d9e0e7; padding: 6px; margin: 4px; border: 1px solid #8da1b4; border-radius: 5px; line-height: 60%\"><p style=\"margin-bottom: 0px\"/><p style=\"margin-bottom: 0px\">Profile: <a href=\"http://medcomfhir.dk/ig/core/3.0.1/StructureDefinition-medcom-core-patient.html\">MedComCorePatient</a></p></div><p style=\"border: 1px #661aff solid; background-color: #e6e6ff; padding: 10px;\">Bruno Elmer (official) (no stated gender), DoB Unknown ( urn:oid:1.2.208.176.1.2#2509479989)</p><hr/></div>"
      },
      "identifier" : [{
        "system" : "urn:oid:1.2.208.176.1.2",
        "value" : "2509479989"
      }],
      "name" : [{
        "use" : "official",
        "family" : "Elmer",
        "given" : ["Bruno"]
      }]
    }
  },
  {
    "fullUrl" : "https://medcomfhir.dk/ig/carecommunication/Communication/d2b79da8-acda-4985-a8ad-5ed7ec9a2800",
    "resource" : {
      "resourceType" : "Communication",
      "id" : "d2b79da8-acda-4985-a8ad-5ed7ec9a2800",
      "meta" : {
        "profile" : ["http://medcomfhir.dk/ig/carecommunication/StructureDefinition/medcom-careCommunication-communication"]
      },
      "text" : {
        "status" : "extensions",
        "div" : "<div xmlns=\"http://www.w3.org/1999/xhtml\"><a name=\"Communication_d2b79da8-acda-4985-a8ad-5ed7ec9a2800\"> </a><p class=\"res-header-id\"><b>Generated Narrative: Communication d2b79da8-acda-4985-a8ad-5ed7ec9a2800</b></p><a name=\"d2b79da8-acda-4985-a8ad-5ed7ec9a2800\"> </a><a name=\"hcd2b79da8-acda-4985-a8ad-5ed7ec9a2800\"> </a><div style=\"display: inline-block; background-color: #d9e0e7; padding: 6px; margin: 4px; border: 1px solid #8da1b4; border-radius: 5px; line-height: 60%\"><p style=\"margin-bottom: 0px\"/><p style=\"margin-bottom: 0px\">Profile: <a href=\"StructureDefinition-medcom-careCommunication-communication.html\">MedComCareCommunication</a></p></div><p><b>identifier</b>: urn:uuid:b2eb3d0e-5de5-4de9-b2a3-0ff321ad1c3a</p><p><b>status</b>: Unknown</p><p><b>category</b>: <span title=\"Codes:{http://medcomfhir.dk/ig/terminology/CodeSystem/medcom-careCommunication-categoryCodes examination-results}\">Undersøgelsessvar</span></p><p><b>subject</b>: <a href=\"Patient-22d65545-f98a-4b4d-ba36-51b48b3eb3de.html\">Bruno Elmer (official) (no stated gender), DoB Unknown ( urn:oid:1.2.208.176.1.2#2509479989)</a></p><p><b>topic</b>: <span title=\"Codes:\">Forspørgsel på seneste resultater</span></p><blockquote><p><b>payload</b></p><p><b>DateTimeExtension</b>: 2024-05-01 12:00:00+0200</p><p><b>IdentifierExtension</b>: urn:uuid:24d01288-ad36-4af2-96a8-fd1432dadee1</p><p><b>PractitionerExtension</b>: <a href=\"PractitionerRole-eda90bde-54f9-11ed-bdc3-0242ac120002.html\">PractitionerRole Sygeplejerske</a></p><p><b>ContactExtension</b>: ph: 38683868</p><p><b>content</b>: Til rette vedkommende. Vi ønsker information om de seneste undersøgelser udført på Bruno. På forhånd tak. Hilsen Michael, sygeplejerske.</p></blockquote><blockquote><p><b>payload</b></p><p><b>DateTimeExtension</b>: 2024-05-02 11:30:00+0200</p><p><b>IdentifierExtension</b>: urn:uuid:a9becf76-fc4c-49aa-8a68-6a0584871fcd</p><p><b>PractitionerExtension</b>: <a href=\"PractitionerRole-8bf63050-5504-11ed-bdc3-0242ac120002.html\">PractitionerRole Sygeplejerske</a></p><p><b>ContactExtension</b>: ph: 44527000</p><p><b>content</b>: Hej Michael, Resultaterne for undersøgelsen kommer her. Blodtryk 130/95 mmHg, vægt: 83 kg og højde: 179 cm. Blodprøven påviste ikke tegn på sukkersyge eller vitaminmangel. Se mere i den vedhæftede pdf. Mvh. Emma</p></blockquote><blockquote><p><b>payload</b></p><p><b>DateTimeExtension</b>: 2024-05-02 11:30:00+0200</p><p><b>PractitionerExtension</b>: <a href=\"PractitionerRole-8bf63050-5504-11ed-bdc3-0242ac120002.html\">PractitionerRole Sygeplejerske</a></p><p><b>ContactExtension</b>: ph: 44527000</p><p><b>IdentifierExtension</b>: urn:uuid:cd422e42-5bad-11ed-9b6a-0242ac120002</p><p><b>content</b>: </p></blockquote><blockquote><p><b>payload</b></p><p><b>DateTimeExtension</b>: 2024-05-03 09:25:00+0200</p><p><b>IdentifierExtension</b>: urn:uuid:07685582-3a8f-4bf3-bfa0-2f040133e922</p><p><b>PractitionerExtension</b>: <a href=\"PractitionerRole-eda90bde-54f9-11ed-bdc3-0242ac120002.html\">PractitionerRole Sygeplejerske</a></p><p><b>ContactExtension</b>: ph: 38683868</p><p><b>content</b>: Mange tak for fremsendte. Kan I desuden hjælpe mig med at finde information vedr. kommunal udredning for sygdommen? / Michael</p></blockquote></div>"
      },
      "identifier" : [{
        "value" : "urn:uuid:b2eb3d0e-5de5-4de9-b2a3-0ff321ad1c3a"
      }],
      "status" : "unknown",
      "category" : [{
        "coding" : [{
          "system" : "http://medcomfhir.dk/ig/terminology/CodeSystem/medcom-careCommunication-categoryCodes",
          "code" : "examination-results"
        }]
      }],
      "subject" : {
        "reference" : "Patient/22d65545-f98a-4b4d-ba36-51b48b3eb3de"
      },
      "topic" : {
        "text" : "Forspørgsel på seneste resultater"
      },
      "payload" : [{
        "extension" : [{
          "url" : "http://medcomfhir.dk/ig/core/StructureDefinition/medcom-core-datetime-extension",
          "valueDateTime" : "2024-05-01T12:00:00+02:00"
        },
        {
          "url" : "http://medcomfhir.dk/ig/core/StructureDefinition/medcom-core-identifier-extension",
          "valueIdentifier" : {
            "value" : "urn:uuid:24d01288-ad36-4af2-96a8-fd1432dadee1",
            "assigner" : {
              "reference" : "Organization/82210440-6826-44fc-9fc8-2a29bab6a5c2"
            }
          }
        },
        {
          "url" : "http://medcomfhir.dk/ig/core/StructureDefinition/medcom-core-practitioner-extension",
          "valueReference" : {
            "reference" : "PractitionerRole/eda90bde-54f9-11ed-bdc3-0242ac120002"
          }
        },
        {
          "url" : "http://medcomfhir.dk/ig/core/StructureDefinition/medcom-core-contact-extension",
          "valueContactPoint" : {
            "system" : "phone",
            "value" : "38683868"
          }
        }],
        "contentString" : "Til rette vedkommende. Vi ønsker information om de seneste undersøgelser udført på Bruno. På forhånd tak. Hilsen Michael, sygeplejerske."
      },
      {
        "extension" : [{
          "url" : "http://medcomfhir.dk/ig/core/StructureDefinition/medcom-core-datetime-extension",
          "valueDateTime" : "2024-05-02T11:30:00+02:00"
        },
        {
          "url" : "http://medcomfhir.dk/ig/core/StructureDefinition/medcom-core-identifier-extension",
          "valueIdentifier" : {
            "value" : "urn:uuid:a9becf76-fc4c-49aa-8a68-6a0584871fcd",
            "assigner" : {
              "reference" : "Organization/f20f31cd-5dd2-4a80-ab00-97f7109864a7"
            }
          }
        },
        {
          "url" : "http://medcomfhir.dk/ig/core/StructureDefinition/medcom-core-practitioner-extension",
          "valueReference" : {
            "reference" : "PractitionerRole/8bf63050-5504-11ed-bdc3-0242ac120002"
          }
        },
        {
          "url" : "http://medcomfhir.dk/ig/core/StructureDefinition/medcom-core-contact-extension",
          "valueContactPoint" : {
            "system" : "phone",
            "value" : "44527000"
          }
        }],
        "contentString" : "Hej Michael, Resultaterne for undersøgelsen kommer her. Blodtryk 130/95 mmHg, vægt: 83 kg og højde: 179 cm. Blodprøven påviste ikke tegn på sukkersyge eller vitaminmangel. Se mere i den vedhæftede pdf. Mvh. Emma"
      },
      {
        "extension" : [{
          "url" : "http://medcomfhir.dk/ig/core/StructureDefinition/medcom-core-datetime-extension",
          "valueDateTime" : "2024-05-02T11:30:00+02:00"
        },
        {
          "url" : "http://medcomfhir.dk/ig/core/StructureDefinition/medcom-core-practitioner-extension",
          "valueReference" : {
            "reference" : "PractitionerRole/8bf63050-5504-11ed-bdc3-0242ac120002"
          }
        },
        {
          "url" : "http://medcomfhir.dk/ig/core/StructureDefinition/medcom-core-contact-extension",
          "valueContactPoint" : {
            "system" : "phone",
            "value" : "44527000"
          }
        },
        {
          "url" : "http://medcomfhir.dk/ig/core/StructureDefinition/medcom-core-identifier-extension",
          "valueIdentifier" : {
            "value" : "urn:uuid:cd422e42-5bad-11ed-9b6a-0242ac120002",
            "assigner" : {
              "reference" : "Organization/f20f31cd-5dd2-4a80-ab00-97f7109864a7"
            }
          }
        }],
        "contentAttachment" : {
          "contentType" : "application/pdf",
          "title" : "Blodprøveresultater",
          "creation" : "2024-04-30T08:00:00+02:00"
        }
      },
      {
        "extension" : [{
          "url" : "http://medcomfhir.dk/ig/core/StructureDefinition/medcom-core-datetime-extension",
          "valueDateTime" : "2024-05-03T09:25:00+02:00"
        },
        {
          "url" : "http://medcomfhir.dk/ig/core/StructureDefinition/medcom-core-identifier-extension",
          "valueIdentifier" : {
            "value" : "urn:uuid:07685582-3a8f-4bf3-bfa0-2f040133e922",
            "assigner" : {
              "reference" : "Organization/82210440-6826-44fc-9fc8-2a29bab6a5c2"
            }
          }
        },
        {
          "url" : "http://medcomfhir.dk/ig/core/StructureDefinition/medcom-core-practitioner-extension",
          "valueReference" : {
            "reference" : "PractitionerRole/eda90bde-54f9-11ed-bdc3-0242ac120002"
          }
        },
        {
          "url" : "http://medcomfhir.dk/ig/core/StructureDefinition/medcom-core-contact-extension",
          "valueContactPoint" : {
            "system" : "phone",
            "value" : "38683868"
          }
        }],
        "contentString" : "Mange tak for fremsendte. Kan I desuden hjælpe mig med at finde information vedr. kommunal udredning for sygdommen? / Michael"
      }]
    }
  },
  {
    "fullUrl" : "https://medcomfhir.dk/ig/carecommunication/PractitionerRole/8bf63050-5504-11ed-bdc3-0242ac120002",
    "resource" : {
      "resourceType" : "PractitionerRole",
      "id" : "8bf63050-5504-11ed-bdc3-0242ac120002",
      "meta" : {
        "profile" : ["http://medcomfhir.dk/ig/core/StructureDefinition/medcom-core-practitionerrole"]
      },
      "text" : {
        "status" : "generated",
        "div" : "<div xmlns=\"http://www.w3.org/1999/xhtml\"><a name=\"PractitionerRole_8bf63050-5504-11ed-bdc3-0242ac120002\"> </a><p class=\"res-header-id\"><b>Generated Narrative: PractitionerRole 8bf63050-5504-11ed-bdc3-0242ac120002</b></p><a name=\"8bf63050-5504-11ed-bdc3-0242ac120002\"> </a><a name=\"hc8bf63050-5504-11ed-bdc3-0242ac120002\"> </a><div style=\"display: inline-block; background-color: #d9e0e7; padding: 6px; margin: 4px; border: 1px solid #8da1b4; border-radius: 5px; line-height: 60%\"><p style=\"margin-bottom: 0px\"/><p style=\"margin-bottom: 0px\">Profile: <a href=\"http://medcomfhir.dk/ig/core/3.0.1/StructureDefinition-medcom-core-practitionerrole.html\">MedComCorePractitionerRole</a></p></div><p><b>practitioner</b>: <a href=\"Practitioner-7ffff970-5504-11ed-bdc3-0242ac120002.html\">Practitioner Emma Waters </a></p><p><b>code</b>: <span title=\"Codes:{http://medcomfhir.dk/ig/terminology/CodeSystem/medcom-core-PractitionerRolesSKSadministrativ sygeplejerske}\">Sygeplejerske</span></p></div>"
      },
      "practitioner" : {
        "reference" : "Practitioner/7ffff970-5504-11ed-bdc3-0242ac120002"
      },
      "code" : [{
        "coding" : [{
          "system" : "http://medcomfhir.dk/ig/terminology/CodeSystem/medcom-core-PractitionerRolesSKSadministrativ",
          "code" : "sygeplejerske"
        }]
      }]
    }
  },
  {
    "fullUrl" : "https://medcomfhir.dk/ig/carecommunication/Practitioner/7ffff970-5504-11ed-bdc3-0242ac120002",
    "resource" : {
      "resourceType" : "Practitioner",
      "id" : "7ffff970-5504-11ed-bdc3-0242ac120002",
      "meta" : {
        "profile" : ["http://medcomfhir.dk/ig/core/StructureDefinition/medcom-core-practitioner"]
      },
      "text" : {
        "status" : "generated",
        "div" : "<div xmlns=\"http://www.w3.org/1999/xhtml\"><a name=\"Practitioner_7ffff970-5504-11ed-bdc3-0242ac120002\"> </a><p class=\"res-header-id\"><b>Generated Narrative: Practitioner 7ffff970-5504-11ed-bdc3-0242ac120002</b></p><a name=\"7ffff970-5504-11ed-bdc3-0242ac120002\"> </a><a name=\"hc7ffff970-5504-11ed-bdc3-0242ac120002\"> </a><div style=\"display: inline-block; background-color: #d9e0e7; padding: 6px; margin: 4px; border: 1px solid #8da1b4; border-radius: 5px; line-height: 60%\"><p style=\"margin-bottom: 0px\"/><p style=\"margin-bottom: 0px\">Profile: <a href=\"http://medcomfhir.dk/ig/core/3.0.1/StructureDefinition-medcom-core-practitioner.html\">MedComCorePractitioner</a></p></div><p><b>name</b>: Emma Waters </p></div>"
      },
      "name" : [{
        "family" : "Waters",
        "given" : ["Emma"]
      }]
    }
  },
  {
    "fullUrl" : "https://medcomfhir.dk/ig/carecommunication/PractitionerRole/eda90bde-54f9-11ed-bdc3-0242ac120002",
    "resource" : {
      "resourceType" : "PractitionerRole",
      "id" : "eda90bde-54f9-11ed-bdc3-0242ac120002",
      "meta" : {
        "profile" : ["http://medcomfhir.dk/ig/core/StructureDefinition/medcom-core-practitionerrole"]
      },
      "text" : {
        "status" : "generated",
        "div" : "<div xmlns=\"http://www.w3.org/1999/xhtml\"><a name=\"PractitionerRole_eda90bde-54f9-11ed-bdc3-0242ac120002\"> </a><p class=\"res-header-id\"><b>Generated Narrative: PractitionerRole eda90bde-54f9-11ed-bdc3-0242ac120002</b></p><a name=\"eda90bde-54f9-11ed-bdc3-0242ac120002\"> </a><a name=\"hceda90bde-54f9-11ed-bdc3-0242ac120002\"> </a><div style=\"display: inline-block; background-color: #d9e0e7; padding: 6px; margin: 4px; border: 1px solid #8da1b4; border-radius: 5px; line-height: 60%\"><p style=\"margin-bottom: 0px\"/><p style=\"margin-bottom: 0px\">Profile: <a href=\"http://medcomfhir.dk/ig/core/3.0.1/StructureDefinition-medcom-core-practitionerrole.html\">MedComCorePractitionerRole</a></p></div><p><b>practitioner</b>: <a href=\"Practitioner-58c811a5-4082-44eb-9d66-ccbb112d4973.html\">Practitioner Michael Burns </a></p><p><b>code</b>: <span title=\"Codes:{http://medcomfhir.dk/ig/terminology/CodeSystem/medcom-core-PractitionerRolesSKSadministrativ sygeplejerske}\">Sygeplejerske</span></p></div>"
      },
      "practitioner" : {
        "reference" : "Practitioner/58c811a5-4082-44eb-9d66-ccbb112d4973"
      },
      "code" : [{
        "coding" : [{
          "system" : "http://medcomfhir.dk/ig/terminology/CodeSystem/medcom-core-PractitionerRolesSKSadministrativ",
          "code" : "sygeplejerske"
        }]
      }]
    }
  },
  {
    "fullUrl" : "https://medcomfhir.dk/ig/carecommunication/Practitioner/58c811a5-4082-44eb-9d66-ccbb112d4973",
    "resource" : {
      "resourceType" : "Practitioner",
      "id" : "58c811a5-4082-44eb-9d66-ccbb112d4973",
      "meta" : {
        "profile" : ["http://medcomfhir.dk/ig/core/StructureDefinition/medcom-core-practitioner"]
      },
      "text" : {
        "status" : "generated",
        "div" : "<div xmlns=\"http://www.w3.org/1999/xhtml\"><a name=\"Practitioner_58c811a5-4082-44eb-9d66-ccbb112d4973\"> </a><p class=\"res-header-id\"><b>Generated Narrative: Practitioner 58c811a5-4082-44eb-9d66-ccbb112d4973</b></p><a name=\"58c811a5-4082-44eb-9d66-ccbb112d4973\"> </a><a name=\"hc58c811a5-4082-44eb-9d66-ccbb112d4973\"> </a><div style=\"display: inline-block; background-color: #d9e0e7; padding: 6px; margin: 4px; border: 1px solid #8da1b4; border-radius: 5px; line-height: 60%\"><p style=\"margin-bottom: 0px\"/><p style=\"margin-bottom: 0px\">Profile: <a href=\"http://medcomfhir.dk/ig/core/3.0.1/StructureDefinition-medcom-core-practitioner.html\">MedComCorePractitioner</a></p></div><p><b>name</b>: Michael Burns </p></div>"
      },
      "name" : [{
        "family" : "Burns",
        "given" : ["Michael"]
      }]
    }
  },
  {
    "fullUrl" : "https://medcomfhir.dk/ig/carecommunication/Organization/f20f31cd-5dd2-4a80-ab00-97f7109864a7",
    "resource" : {
      "resourceType" : "Organization",
      "id" : "f20f31cd-5dd2-4a80-ab00-97f7109864a7",
      "meta" : {
        "profile" : ["http://medcomfhir.dk/ig/messaging/StructureDefinition/medcom-messaging-organization"]
      },
      "text" : {
        "status" : "generated",
        "div" : "<div xmlns=\"http://www.w3.org/1999/xhtml\"><a name=\"Organization_f20f31cd-5dd2-4a80-ab00-97f7109864a7\"> </a><p class=\"res-header-id\"><b>Generated Narrative: Organization f20f31cd-5dd2-4a80-ab00-97f7109864a7</b></p><a name=\"f20f31cd-5dd2-4a80-ab00-97f7109864a7\"> </a><a name=\"hcf20f31cd-5dd2-4a80-ab00-97f7109864a7\"> </a><div style=\"display: inline-block; background-color: #d9e0e7; padding: 6px; margin: 4px; border: 1px solid #8da1b4; border-radius: 5px; line-height: 60%\"><p style=\"margin-bottom: 0px\"/><p style=\"margin-bottom: 0px\">Profile: <a href=\"http://medcomfhir.dk/ig/messaging/4.0.1/StructureDefinition-medcom-messaging-organization.html\">MedComMessagingOrganization</a></p></div><p><b>identifier</b>: <code>https://www.gs1.org/gln</code>/5790001348120, <code>urn:oid:1.2.208.176.1.1</code>/953741000016009</p><p><b>name</b>: Plejecenter Herlev</p></div>"
      },
      "identifier" : [{
        "system" : "https://www.gs1.org/gln",
        "value" : "5790001348120"
      },
      {
        "system" : "urn:oid:1.2.208.176.1.1",
        "value" : "953741000016009"
      }],
      "name" : "Plejecenter Herlev"
    }
  },
  {
    "fullUrl" : "https://medcomfhir.dk/ig/carecommunication/Organization/82210440-6826-44fc-9fc8-2a29bab6a5c2",
    "resource" : {
      "resourceType" : "Organization",
      "id" : "82210440-6826-44fc-9fc8-2a29bab6a5c2",
      "meta" : {
        "profile" : ["http://medcomfhir.dk/ig/messaging/StructureDefinition/medcom-messaging-organization"]
      },
      "text" : {
        "status" : "generated",
        "div" : "<div xmlns=\"http://www.w3.org/1999/xhtml\"><a name=\"Organization_82210440-6826-44fc-9fc8-2a29bab6a5c2\"> </a><p class=\"res-header-id\"><b>Generated Narrative: Organization 82210440-6826-44fc-9fc8-2a29bab6a5c2</b></p><a name=\"82210440-6826-44fc-9fc8-2a29bab6a5c2\"> </a><a name=\"hc82210440-6826-44fc-9fc8-2a29bab6a5c2\"> </a><div style=\"display: inline-block; background-color: #d9e0e7; padding: 6px; margin: 4px; border: 1px solid #8da1b4; border-radius: 5px; line-height: 60%\"><p style=\"margin-bottom: 0px\"/><p style=\"margin-bottom: 0px\">Profile: <a href=\"http://medcomfhir.dk/ig/messaging/4.0.1/StructureDefinition-medcom-messaging-organization.html\">MedComMessagingOrganization</a></p></div><p><b>identifier</b>: <code>https://www.gs1.org/gln</code>/5790000209354, <code>urn:oid:1.2.208.176.1.1</code>/265161000016000</p><p><b>name</b>: Hjerteafdelingen på Herlev og Gentofte hospital</p></div>"
      },
      "identifier" : [{
        "system" : "https://www.gs1.org/gln",
        "value" : "5790000209354"
      },
      {
        "system" : "urn:oid:1.2.208.176.1.1",
        "value" : "265161000016000"
      }],
      "name" : "Hjerteafdelingen på Herlev og Gentofte hospital"
    }
  },
  {
    "fullUrl" : "https://medcomfhir.dk/ig/carecommunication/Provenance/5c748aa5-64ab-47a9-a74b-033b04a19dae",
    "resource" : {
      "resourceType" : "Provenance",
      "id" : "5c748aa5-64ab-47a9-a74b-033b04a19dae",
      "meta" : {
        "profile" : ["http://medcomfhir.dk/ig/carecommunication/StructureDefinition/medcom-careCommunication-provenance"]
      },
      "text" : {
        "status" : "generated",
        "div" : "<div xmlns=\"http://www.w3.org/1999/xhtml\"><a name=\"Provenance_5c748aa5-64ab-47a9-a74b-033b04a19dae\"> </a><p class=\"res-header-id\"><b>Generated Narrative: Provenance 5c748aa5-64ab-47a9-a74b-033b04a19dae</b></p><a name=\"5c748aa5-64ab-47a9-a74b-033b04a19dae\"> </a><a name=\"hc5c748aa5-64ab-47a9-a74b-033b04a19dae\"> </a><div style=\"display: inline-block; background-color: #d9e0e7; padding: 6px; margin: 4px; border: 1px solid #8da1b4; border-radius: 5px; line-height: 60%\"><p style=\"margin-bottom: 0px\"/><p style=\"margin-bottom: 0px\">Profile: <a href=\"StructureDefinition-medcom-careCommunication-provenance.html\">MedComCareCommunicationProvenance</a></p></div><p>Provenance for <a href=\"MessageHeader-d5bd2111-2576-48d3-84d4-8be0297a038d.html\">MessageHeader: event[x] = Care Communication Message (MedComMessagingEventCodes#care-communication-message); definition = http://medcomfhir.dk/ig/messagedefinitions/MessageDefinition/MedComCareCommunicationMessageDefinition|5.0</a></p><p>Summary</p><table class=\"grid\"><tr><td>Occurrence</td><td>2024-05-02 11:30:00+0200</td></tr><tr><td>Recorded</td><td>2024-05-02 11:30:00+0200</td></tr><tr><td>Activity</td><td><span title=\"Codes:{http://medcomfhir.dk/ig/terminology/CodeSystem/medcom-messaging-activityCodes reply-message}\">A message has been replied to</span></td></tr></table><p><b>Agents</b></p><table class=\"grid\"><tr><td><b>who</b></td></tr><tr><td><a href=\"Organization-f20f31cd-5dd2-4a80-ab00-97f7109864a7.html\">Organization Plejecenter Herlev</a></td></tr></table></div>"
      },
      "target" : [{
        "reference" : "MessageHeader/d5bd2111-2576-48d3-84d4-8be0297a038d"
      }],
      "occurredDateTime" : "2024-05-02T11:30:00+02:00",
      "recorded" : "2024-05-02T11:30:00+02:00",
      "activity" : {
        "coding" : [{
          "system" : "http://medcomfhir.dk/ig/terminology/CodeSystem/medcom-messaging-activityCodes",
          "code" : "reply-message"
        }]
      },
      "agent" : [{
        "who" : {
          "reference" : "Organization/f20f31cd-5dd2-4a80-ab00-97f7109864a7"
        }
      }],
      "entity" : [{
        "role" : "source",
        "what" : {
          "identifier" : {
            "value" : "urn:uuid:cd422e42-5bad-11ed-9b6a-0242ac120002"
          }
        }
      },
      {
        "role" : "revision",
        "what" : {
          "reference" : "MessageHeader/42cb9200-f421-4d08-8391-7d51a2503cb4"
        }
      },
      {
        "role" : "source",
        "what" : {
          "identifier" : {
            "value" : "urn:uuid:a9becf76-fc4c-49aa-8a68-6a0584871fcd"
          }
        }
      }]
    }
  },
  {
    "fullUrl" : "https://medcomfhir.dk/ig/carecommunication/Provenance/af9b0255-1bdd-49c7-9d39-d652a587e4b2",
    "resource" : {
      "resourceType" : "Provenance",
      "id" : "af9b0255-1bdd-49c7-9d39-d652a587e4b2",
      "meta" : {
        "profile" : ["http://medcomfhir.dk/ig/carecommunication/StructureDefinition/medcom-careCommunication-provenance"]
      },
      "text" : {
        "status" : "generated",
        "div" : "<div xmlns=\"http://www.w3.org/1999/xhtml\"><a name=\"Provenance_af9b0255-1bdd-49c7-9d39-d652a587e4b2\"> </a><p class=\"res-header-id\"><b>Generated Narrative: Provenance af9b0255-1bdd-49c7-9d39-d652a587e4b2</b></p><a name=\"af9b0255-1bdd-49c7-9d39-d652a587e4b2\"> </a><a name=\"hcaf9b0255-1bdd-49c7-9d39-d652a587e4b2\"> </a><div style=\"display: inline-block; background-color: #d9e0e7; padding: 6px; margin: 4px; border: 1px solid #8da1b4; border-radius: 5px; line-height: 60%\"><p style=\"margin-bottom: 0px\"/><p style=\"margin-bottom: 0px\">Profile: <a href=\"StructureDefinition-medcom-careCommunication-provenance.html\">MedComCareCommunicationProvenance</a></p></div><p>Provenance for <a href=\"MessageHeader-42cb9200-f421-4d08-8391-7d51a2503cb4.html\">MessageHeader: event[x] = Care Communication Message (MedComMessagingEventCodes#care-communication-message); definition = http://medcomfhir.dk/ig/messagedefinitions/MessageDefinition/MedComCareCommunicationMessageDefinition|5.0</a></p><p>Summary</p><table class=\"grid\"><tr><td>Occurrence</td><td>2024-05-01 12:00:00+0200</td></tr><tr><td>Recorded</td><td>2024-05-01 12:00:00+0200</td></tr><tr><td>Activity</td><td><span title=\"Codes:{http://medcomfhir.dk/ig/terminology/CodeSystem/medcom-messaging-activityCodes new-message}\">A new message has been sent</span></td></tr></table><p><b>Agents</b></p><table class=\"grid\"><tr><td><b>who</b></td></tr><tr><td><a href=\"Organization-82210440-6826-44fc-9fc8-2a29bab6a5c2.html\">Organization Hjerteafdelingen på Herlev og Gentofte hospital</a></td></tr></table></div>"
      },
      "target" : [{
        "reference" : "MessageHeader/42cb9200-f421-4d08-8391-7d51a2503cb4"
      }],
      "occurredDateTime" : "2024-05-01T12:00:00+02:00",
      "recorded" : "2024-05-01T12:00:00+02:00",
      "activity" : {
        "coding" : [{
          "system" : "http://medcomfhir.dk/ig/terminology/CodeSystem/medcom-messaging-activityCodes",
          "code" : "new-message"
        }]
      },
      "agent" : [{
        "who" : {
          "reference" : "Organization/82210440-6826-44fc-9fc8-2a29bab6a5c2"
        }
      }],
      "entity" : [{
        "role" : "source",
        "what" : {
          "identifier" : {
            "value" : "urn:uuid:24d01288-ad36-4af2-96a8-fd1432dadee1"
          }
        }
      }]
    }
  },
  {
    "fullUrl" : "https://medcomfhir.dk/ig/carecommunication/Provenance/73232102-649c-4c63-88f5-94ce189b94a7",
    "resource" : {
      "resourceType" : "Provenance",
      "id" : "73232102-649c-4c63-88f5-94ce189b94a7",
      "meta" : {
        "profile" : ["http://medcomfhir.dk/ig/carecommunication/StructureDefinition/medcom-careCommunication-provenance"]
      },
      "text" : {
        "status" : "generated",
        "div" : "<div xmlns=\"http://www.w3.org/1999/xhtml\"><a name=\"Provenance_73232102-649c-4c63-88f5-94ce189b94a7\"> </a><p class=\"res-header-id\"><b>Generated Narrative: Provenance 73232102-649c-4c63-88f5-94ce189b94a7</b></p><a name=\"73232102-649c-4c63-88f5-94ce189b94a7\"> </a><a name=\"hc73232102-649c-4c63-88f5-94ce189b94a7\"> </a><div style=\"display: inline-block; background-color: #d9e0e7; padding: 6px; margin: 4px; border: 1px solid #8da1b4; border-radius: 5px; line-height: 60%\"><p style=\"margin-bottom: 0px\"/><p style=\"margin-bottom: 0px\">Profile: <a href=\"StructureDefinition-medcom-careCommunication-provenance.html\">MedComCareCommunicationProvenance</a></p></div><p>Provenance for <a href=\"MessageHeader-4dff3695-218d-4878-838a-5f23cbba6f82.html\">MessageHeader: event[x] = Care Communication Message (MedComMessagingEventCodes#care-communication-message); definition = http://medcomfhir.dk/ig/messagedefinitions/MessageDefinition/MedComCareCommunicationMessageDefinition|5.0</a></p><p>Summary</p><table class=\"grid\"><tr><td>Occurrence</td><td>2024-05-03 09:25:00+0200</td></tr><tr><td>Recorded</td><td>2024-05-03 09:25:00+0200</td></tr><tr><td>Activity</td><td><span title=\"Codes:{http://medcomfhir.dk/ig/terminology/CodeSystem/medcom-messaging-activityCodes reply-message}\">A message has been replied to</span></td></tr></table><p><b>Agents</b></p><table class=\"grid\"><tr><td><b>who</b></td></tr><tr><td><a href=\"Organization-82210440-6826-44fc-9fc8-2a29bab6a5c2.html\">Organization Hjerteafdelingen på Herlev og Gentofte hospital</a></td></tr></table></div>"
      },
      "target" : [{
        "reference" : "MessageHeader/4dff3695-218d-4878-838a-5f23cbba6f82"
      }],
      "occurredDateTime" : "2024-05-03T09:25:00+02:00",
      "recorded" : "2024-05-03T09:25:00+02:00",
      "activity" : {
        "coding" : [{
          "system" : "http://medcomfhir.dk/ig/terminology/CodeSystem/medcom-messaging-activityCodes",
          "code" : "reply-message"
        }]
      },
      "agent" : [{
        "who" : {
          "reference" : "Organization/82210440-6826-44fc-9fc8-2a29bab6a5c2"
        }
      }],
      "entity" : [{
        "role" : "source",
        "what" : {
          "identifier" : {
            "value" : "urn:uuid:07685582-3a8f-4bf3-bfa0-2f040133e922"
          }
        }
      },
      {
        "role" : "revision",
        "what" : {
          "reference" : "MessageHeader/d5bd2111-2576-48d3-84d4-8be0297a038d"
        }
      }]
    }
  }]
}