{
  "resourceType" : "Bundle",
  "id" : "S-A-new-1932711d-49d0-4ad7-b1ee-61de711892d2",
  "meta" : {
    "profile" : ["http://medcomfhir.dk/ig/carecommunication/StructureDefinition/medcom-careCommunication-message|5.0.1"]
  },
  "type" : "message",
  "timestamp" : "2024-09-05T14:00:00+02:00",
  "entry" : [{
    "fullUrl" : "https://medcomfhir.dk/ig/carecommunication/MessageHeader/0ebb6284-eb20-45eb-8113-6620d2d08608",
    "resource" : {
      "resourceType" : "MessageHeader",
      "id" : "0ebb6284-eb20-45eb-8113-6620d2d08608",
      "meta" : {
        "profile" : ["http://medcomfhir.dk/ig/carecommunication/StructureDefinition/medcom-careCommunication-messageHeader|5.0.1"]
      },
      "text" : {
        "status" : "generated",
        "div" : "<div xmlns=\"http://www.w3.org/1999/xhtml\"><a name=\"MessageHeader_0ebb6284-eb20-45eb-8113-6620d2d08608\"> </a><p class=\"res-header-id\"><b>Generated Narrative: MessageHeader 0ebb6284-eb20-45eb-8113-6620d2d08608</b></p><a name=\"0ebb6284-eb20-45eb-8113-6620d2d08608\"> </a><a name=\"hc0ebb6284-eb20-45eb-8113-6620d2d08608\"> </a><div style=\"display: inline-block; background-color: #d9e0e7; padding: 6px; margin: 4px; border: 1px solid #8da1b4; border-radius: 5px; line-height: 60%\"><p style=\"margin-bottom: 0px\"/><p style=\"margin-bottom: 0px\">Profile: <a href=\"http://medcomfhir.dk/ig/carecommunication/5.0.1/StructureDefinition-medcom-careCommunication-messageHeader.html\">MedComCareCommunicationMessageHeaderversion: null5.0.1)</a></p></div><p><b>event</b>: <a href=\"http://medcomfhir.dk/ig/terminology/2.0.1/CodeSystem-medcom-messaging-eventCodes.html#medcom-messaging-eventCodes-care-communication-message\">MedComMessagingEventCodes care-communication-message</a>: Care Communication Message</p><h3>Destinations</h3><table class=\"grid\"><tr><td style=\"display: none\">-</td><td><b>Extension</b></td><td><b>Endpoint</b></td><td><b>Receiver</b></td></tr><tr><td style=\"display: none\">*</td><td/><td><a href=\"https://sor2.sum.dsdn.dk/#id=330461000016004\">https://sor2.sum.dsdn.dk/#id=330461000016004</a></td><td><a href=\"Organization-26bfb2de-a811-4744-9883-9a50c59e710d.html\">Organization Sundhedsplejen, Aabenraa kommune</a></td></tr></table><p><b>sender</b>: <a href=\"Organization-09844b02-9647-49e1-92ae-37dc5c721888.html\">Organization Klinik for Ældresygdomme, AUH, Skejby</a></p><h3>Sources</h3><table class=\"grid\"><tr><td style=\"display: none\">-</td><td><b>Endpoint</b></td></tr><tr><td style=\"display: none\">*</td><td><a href=\"https://sor2.sum.dsdn.dk/#id=441211000016000\">https://sor2.sum.dsdn.dk/#id=441211000016000</a></td></tr></table><p><b>focus</b>: <a href=\"Communication-b2819bfe-07d1-4c26-94a3-a45a702a04a0.html\">Communication: extension = -&gt;CareTeam Team +80 år; identifier = urn:uuid:b2eb3d0e-5de5-4de9-b2a3-0ff321ad1c3a; status = unknown; category = Akut ambulant; topic = </a></p><p><b>definition</b>: <a href=\"http://medcomfhir.dk/ig/messagedefinitions/1.0.0/MessageDefinition-MedComCareCommunicationMessageDefinitionV5.0.html\">http://medcomfhir.dk/ig/messagedefinitions/MessageDefinition/MedComCareCommunicationMessageDefinition|5.0</a></p></div>"
      },
      "eventCoding" : {
        "system" : "http://medcomfhir.dk/ig/terminology/CodeSystem/medcom-messaging-eventCodes",
        "code" : "care-communication-message"
      },
      "destination" : [{
        "extension" : [{
          "url" : "http://medcomfhir.dk/ig/messaging/StructureDefinition/medcom-messaging-destinationUseExtension",
          "valueCoding" : {
            "system" : "http://medcomfhir.dk/ig/terminology/CodeSystem/medcom-messaging-destinationUse",
            "code" : "primary"
          }
        }],
        "endpoint" : "https://sor2.sum.dsdn.dk/#id=330461000016004",
        "receiver" : {
          "reference" : "Organization/26bfb2de-a811-4744-9883-9a50c59e710d"
        }
      }],
      "sender" : {
        "reference" : "Organization/09844b02-9647-49e1-92ae-37dc5c721888"
      },
      "source" : {
        "endpoint" : "https://sor2.sum.dsdn.dk/#id=441211000016000"
      },
      "focus" : [{
        "reference" : "Communication/b2819bfe-07d1-4c26-94a3-a45a702a04a0"
      }],
      "definition" : "http://medcomfhir.dk/ig/messagedefinitions/MessageDefinition/MedComCareCommunicationMessageDefinition|5.0"
    }
  },
  {
    "fullUrl" : "https://medcomfhir.dk/ig/carecommunication/Patient/9fcf448a-4628-45e1-9098-0dd8de0e7e76",
    "resource" : {
      "resourceType" : "Patient",
      "id" : "9fcf448a-4628-45e1-9098-0dd8de0e7e76",
      "meta" : {
        "profile" : ["http://medcomfhir.dk/ig/core/StructureDefinition/medcom-core-patient|3.0.1"]
      },
      "text" : {
        "status" : "generated",
        "div" : "<div xmlns=\"http://www.w3.org/1999/xhtml\"><a name=\"Patient_9fcf448a-4628-45e1-9098-0dd8de0e7e76\"> </a><p class=\"res-header-id\"><b>Generated Narrative: Patient 9fcf448a-4628-45e1-9098-0dd8de0e7e76</b></p><a name=\"9fcf448a-4628-45e1-9098-0dd8de0e7e76\"> </a><a name=\"hc9fcf448a-4628-45e1-9098-0dd8de0e7e76\"> </a><div style=\"display: inline-block; background-color: #d9e0e7; padding: 6px; margin: 4px; border: 1px solid #8da1b4; border-radius: 5px; line-height: 60%\"><p style=\"margin-bottom: 0px\"/><p style=\"margin-bottom: 0px\">Profile: <a href=\"http://medcomfhir.dk/ig/core/3.0.1/StructureDefinition-medcom-core-patient.html\">MedComCorePatientversion: null3.0.1)</a></p></div><p style=\"border: 1px #661aff solid; background-color: #e6e6ff; padding: 10px;\">Bruno Elmer (official) (no stated gender), DoB Unknown ( urn:oid:1.2.208.176.1.2#2509479989)</p><hr/></div>"
      },
      "identifier" : [{
        "system" : "urn:oid:1.2.208.176.1.2",
        "value" : "2509479989"
      }],
      "name" : [{
        "use" : "official",
        "family" : "Elmer",
        "given" : ["Bruno"]
      }]
    }
  },
  {
    "fullUrl" : "https://medcomfhir.dk/ig/carecommunication/Communication/b2819bfe-07d1-4c26-94a3-a45a702a04a0",
    "resource" : {
      "resourceType" : "Communication",
      "id" : "b2819bfe-07d1-4c26-94a3-a45a702a04a0",
      "meta" : {
        "profile" : ["http://medcomfhir.dk/ig/carecommunication/StructureDefinition/medcom-careCommunication-communication|5.0.1"]
      },
      "text" : {
        "status" : "extensions",
        "div" : "<div xmlns=\"http://www.w3.org/1999/xhtml\"><a name=\"Communication_b2819bfe-07d1-4c26-94a3-a45a702a04a0\"> </a><p class=\"res-header-id\"><b>Generated Narrative: Communication b2819bfe-07d1-4c26-94a3-a45a702a04a0</b></p><a name=\"b2819bfe-07d1-4c26-94a3-a45a702a04a0\"> </a><a name=\"hcb2819bfe-07d1-4c26-94a3-a45a702a04a0\"> </a><div style=\"display: inline-block; background-color: #d9e0e7; padding: 6px; margin: 4px; border: 1px solid #8da1b4; border-radius: 5px; line-height: 60%\"><p style=\"margin-bottom: 0px\"/><p style=\"margin-bottom: 0px\">Profile: <a href=\"http://medcomfhir.dk/ig/carecommunication/5.0.1/StructureDefinition-medcom-careCommunication-communication.html\">MedComCareCommunicationversion: null5.0.1)</a></p></div><p><b>SenderExtension</b>: <a href=\"CareTeam-48aa320d-dd35-40b8-a6c0-82312652b720.html\">CareTeam Team +80 år</a></p><p><b>identifier</b>: urn:uuid:b2eb3d0e-5de5-4de9-b2a3-0ff321ad1c3a</p><p><b>status</b>: Unknown</p><p><b>category</b>: <span title=\"Codes:{http://medcomfhir.dk/ig/terminology/CodeSystem/medcom-careCommunication-categoryCodes acute-ambulant}\">Akut ambulant</span></p><p><b>subject</b>: <a href=\"Patient-9fcf448a-4628-45e1-9098-0dd8de0e7e76.html\">Bruno Elmer (official) (no stated gender), DoB Unknown ( urn:oid:1.2.208.176.1.2#2509479989)</a></p><p><b>topic</b>: <span title=\"Codes:\">Kritisk tilstand</span></p><p><b>recipient</b>: <a href=\"PractitionerRole-2d808d61-69ec-4040-b6f8-2be94926f86e.html\">PractitionerRole </a></p><blockquote><p><b>payload</b></p><p><b>DateTimeExtension</b>: 2024-09-05 14:00:00+0200</p><p><b>IdentifierExtension</b>: urn:uuid:c87eb7b4-4680-499f-b6dd-49b0581ca5c6</p><p><b>PractitionerExtension</b>: <a href=\"PractitionerRole-2b9a1598-4147-472c-9f8a-712bb7479c57.html\">PractitionerRole Social- og sundhedsmedhjælper</a></p><p><b>ContactExtension</b>: ph: 38683868</p><p><b>content</b>: Til rette vedkommende på Arden Lægehus. Vedr. henvisningen af Elmer fra udskrivelse ønsker, vi at gøre jer opmærksomme på hans kritiske tilstand, som beskrevet i henvisningen. It contains the information you requested over the phone:\nProin aliquet sit amet justo quis auctor. Integer malesuada tempor purus sit amet dictum. Nulla dictum pharetra erat sit amet faucibus. Fusce porttitor, lectus sed volutpat pulvinar, tortor leo sodales elit, non mattis ligula enim dignissim ex. Donec ornare laoreet elit dapibus maximus. Mauris malesuada enim vitae ligula feugiat, eget rutrum orci auctor. Aenean feugiat volutpat magna ut venenatis. Proin eu ornare metus, in pretium sem. Aenean id bibendum urna. Sed ultricies mauris in erat bibendum rhoncus. Suspendisse ac porttitor tellus. Sed molestie pharetra turpis, pellentesque ultrices tortor sodales sit amet. Integer et nulla luctus, fermentum felis eget, consequat est. Curabitur sed blandit nunc. Etiam cursus neque id diam consequat pharetra. Orci varius natoque penatibus et magnis dis parturient montes, nascetur ridiculus mus.\nNulla vitae lectus ut ipsum lobortis porttitor id eu purus. In finibus erat vitae orci volutpat, in euismod lorem dignissim. Vivamus volutpat orci sit amet velit pulvinar, id elementum lacus placerat. Donec scelerisque ligula at risus auctor venenatis ac et nibh. Donec eget cursus ipsum. Etiam interdum, velit vitae pulvinar egestas, quam risus interdum nisi, ut porta odio magna at diam. Cras dignissim tempor urna id condimentum. Cras molestie sagittis venenatis. Aenean at rutrum tellus, sit amet mollis elit.\nPraesent dictum lacinia enim sit amet scelerisque. Proin cursus enim luctus mi fringilla rhoncus. Praesent sagittis, erat vel auctor pretium, elit leo vulputate quam, a tincidunt ante justo sit amet eros. Duis condimentum, dui sed finibus convallis, ipsum neque dictum mauris, quis pulvinar mauris mi feugiat enim. Proin ullamcorper nibh lorem, nec consequat erat rhoncus ut. Praesent nisi ligula, molestie in nulla a, interdum sagittis neque. Nulla viverra elit ac eros mattis ultricies. Pellentesque a iaculis tellus.\nLorem ipsum dolor sit amet, consectetur adipiscing elit. Phasellus commodo nibh nulla, sit amet interdum ex condimentum ac. Mauris sodales placerat mollis. Suspendisse non quam pretium, ultricies nisl in, vehicula neque. Vestibulum ante ipsum primis in faucibus orci luctus et ultrices posuere cubilia curae; Ut condimentum vel orci efficitur viverra. Praesent posuere molestie lacus at consectetur. Vivamus pharetra, eros vel porta pretium, urna sem sodales nisi, ac tristique massa nisl nec sem. Donec at massa non felis ullamcorper eleifend. Morbi sit amet pharetra orci. Vivamus laoreet viverra tempor.\nThis journal note is written by Hans Hansen on the 20th of November 2022 after a hospitalisation.\nProin aliquet sit amet justo quis auctor. Integer malesuada tempor purus sit amet dictum. Nulla dictum pharetra erat sit amet faucibus. Fusce porttitor, lectus sed volutpat pulvinar, tortor leo sodales elit, non mattis ligula enim dignissim ex. Donec ornare laoreet elit dapibus maximus. Mauris malesuada enim vitae ligula feugiat, eget rutrum orci auctor. Aenean feugiat volutpat magna ut venenatis. Proin eu ornare metus, in pretium sem. Aenean id bibendum urna. Sed ultricies mauris in erat bibendum rhoncus. Suspendisse ac porttitor tellus. Sed molestie pharetra turpis, pellentesque ultrices tortor sodales sit amet. Integer et nulla luctus, fermentum felis eget, consequat est. Curabitur sed blandit nunc. Etiam cursus neque id diam consequat pharetra. Orci varius natoque penatibus et magnis dis parturient montes, nascetur ridiculus mus.\nNulla vitae lectus ut ipsum lobortis porttitor id eu purus. In finibus erat vitae orci volutpat, in euismod lorem dignissim. Vivamus volutpat orci sit amet velit pulvinar, id elementum lacus placerat. Donec scelerisque ligula at risus auctor venenatis ac et nibh. Donec eget cursus ipsum. Etiam interdum, velit vitae pulvinar egestas, quam risus interdum nisi, ut porta odio magna at diam. Cras dignissim tempor urna id condimentum. Cras molestie sagittis venenatis. Aenean at rutrum tellus, sit amet mollis elit.\nPraesent dictum lacinia enim sit amet scelerisque. Proin cursus enim luctus mi fringilla rhoncus. Praesent sagittis, erat vel auctor pretium, elit leo vulputate quam, a tincidunt ante justo sit amet eros. Duis condimentum, dui sed finibus convallis, ipsum neque dictum mauris, quis pulvinar mauris mi feugiat enim. Proin ullamcorper nibh lorem, nec consequat erat rhoncus ut. Praesent nisi ligula, molestie in nulla a, interdum sagittis neque. Nulla viverra elit ac eros mattis ultricies. Pellentesque a iaculis tellus.\nLorem ipsum dolor sit amet, consectetur adipiscing elit. Phasellus commodo nibh nulla, sit amet interdum ex condimentum ac. Mauris sodales placerat mollis. Suspendisse non quam pretium, ultricies nisl in, vehicula neque. Vestibulum ante ipsum primis in faucibus orci luctus et ultrices posuere cubilia curae; Ut condimentum vel orci efficitur viverra. Praesent posuere molestie lacus at consectetur. Vivamus pharetra, eros vel porta pretium, urna sem sodales nisi, ac tristique massa nisl nec sem. Donec at massa non felis ullamcorper eleifend. Morbi sit amet pharetra orci. Vivamus laoreet viverra tempor.\nThis journal note is written by Hans Hansen on the 20th of November 2022 after a hospitalisation.\nProin aliquet sit amet justo quis auctor. Integer malesuada tempor purus sit amet dictum. Nulla dictum pharetra erat sit amet faucibus. Fusce porttitor, lectus sed volutpat pulvinar, tortor leo sodales elit, non mattis ligula enim dignissim ex. Donec ornare laoreet elit dapibus maximus. Mauris malesuada enim vitae ligula feugiat, eget rutrum orci auctor. Aenean feugiat volutpat magna ut venenatis. Proin eu ornare metus, in pretium sem. Aenean id bibendum urna. Sed ultricies mauris in erat bibendum rhoncus. Suspendisse ac porttitor tellus. Sed molestie pharetra turpis, pellentesque ultrices tortor sodales sit amet. Integer et nulla luctus, fermentum felis eget, consequat est. Curabitur sed blandit nunc. Etiam cursus neque id diam consequat pharetra. Orci varius natoque penatibus et magnis dis parturient montes, nascetur ridiculus mus.\nNulla vitae lectus ut ipsum lobortis porttitor id eu purus. In finibus erat vitae orci volutpat, in euismod lorem dignissim. Vivamus volutpat orci sit amet velit pulvinar, id elementum lacus placerat. Donec scelerisque ligula at risus auctor venenatis ac et nibh. Donec eget cursus ipsum. Etiam interdum, velit vitae pulvinar egestas, quam risus interdum nisi, ut porta odio magna at diam. Cras dignissim tempor urna id condimentum. Cras molestie sagittis venenatis. Aenean at rutrum tellus, sit amet mollis elit.\nPraesent dictum lacinia enim sit amet scelerisque. Proin cursus enim luctus mi fringilla rhoncus. Praesent sagittis, erat vel auctor pretium, elit leo vulputate quam, a tincidunt ante justo sit amet eros. Duis condimentum, dui sed finibus convallis, ipsum neque dictum mauris, quis pulvinar mauris mi feugiat enim. Proin ullamcorper nibh lorem, nec consequat erat rhoncus ut. Praesent nisi ligula, molestie in nulla a, interdum sagittis neque. Nulla viverra elit ac eros mattis ultricies. Pellentesque a iaculis tellus.\nLorem ipsum dolor sit amet, consectetur adipiscing elit. Phasellus commodo nibh nulla, sit amet interdum ex condimentum ac. Mauris sodales placerat mollis. Suspendisse non quam pretium, ultricies nisl in, vehicula neque. Vestibulum ante ipsum primis in faucibus orci luctus et ultrices posuere cubilia curae; Ut condimentum vel orci efficitur viverra. Praesent posuere molestie lacus at consectetur. Vivamus pharetra, eros vel porta pretium, urna sem sodales nisi, ac tristique massa nisl nec sem. Donec at massa non felis ullamcorper eleifend. Morbi sit amet pharetra orci. Vivamus laoreet viverra tempor.\nThis journal note is written by Hans Hansen on the 20th of November 2022 after a hospitalisation.\nProin aliquet sit amet justo quis auctor. Integer malesuada tempor purus sit amet dictum. Nulla dictum pharetra erat sit amet faucibus. Fusce porttitor, lectus sed volutpat pulvinar, tortor leo sodales elit, non mattis ligula enim dignissim ex. Donec ornare laoreet elit dapibus maximus. Mauris malesuada enim vitae ligula feugiat, eget rutrum orci auctor. Aenean feugiat volutpat magna ut venenatis. Proin eu ornare metus, in pretium sem. Aenean id bibendum urna. Sed ultricies mauris in erat bibendum rhoncus. Suspendisse ac porttitor tellus. Sed molestie pharetra turpis, pellentesque ultrices tortor sodales sit amet. Integer et nulla luctus, fermentum felis eget, consequat est. Curabitur sed blandit nunc. Etiam cursus neque id diam consequat pharetra. Orci varius natoque penatibus et magnis dis parturient montes, nascetur ridiculus mus.\nNulla vitae lectus ut ipsum lobortis porttitor id eu purus. In finibus erat vitae orci volutpat, in euismod lorem dignissim. Vivamus volutpat orci sit amet velit pulvinar, id elementum lacus placerat. Donec scelerisque ligula at risus auctor venenatis ac et nibh. Donec eget cursus ipsum. Etiam interdum, velit vitae pulvinar egestas, quam risus interdum nisi, ut porta odio magna at diam. Cras dignissim tempor urna id condimentum. Cras molestie sagittis venenatis. Aenean at rutrum tellus, sit amet mollis elit.\nPraesent dictum lacinia enim sit amet scelerisque. Proin cursus enim luctus mi fringilla rhoncus. Praesent sagittis, erat vel auctor pretium, elit leo vulputate quam, a tincidunt ante justo sit amet eros. Duis condimentum, dui sed finibus convallis, ipsum neque dictum mauris, quis pulvinar mauris mi feugiat enim. Proin ullamcorper nibh lorem, nec consequat erat rhoncus ut. Praesent nisi ligula, molestie in nulla a, interdum sagittis neque. Nulla viverra elit ac eros mattis ultricies. Pellentesque a iaculis tellus.\nLorem ipsum dolor sit amet, consectetur adipiscing elit. Phasellus commodo nibh nulla, sit amet interdum ex condimentum ac. Mauris sodales placerat mollis. Suspendisse non quam pretium, ultricies nisl in, vehicula neque. Vestibulum ante ipsum primis in faucibus orci luctus et ultrices posuere cubilia curae; Ut condimentum vel orci efficitur viverra. Praesent posuere molestie lacus at consectetur. Vivamus pharetra, eros vel porta pretium, urna sem sodales nisi, ac tristique massa nisl nec sem. Donec at massa non felis ullamcorper eleifend. Morbi sit amet pharetra orci. Vivamus laoreet viverra tempor.\nThis journal note is written by Hans Hansen on the 20th of November 2022 after a hospitalisation.\nHilsen Michael Burns\nSygeplejerske</p></blockquote></div>"
      },
      "extension" : [{
        "url" : "http://medcomfhir.dk/ig/core/StructureDefinition/medcom-core-sender-extension",
        "valueReference" : {
          "reference" : "CareTeam/48aa320d-dd35-40b8-a6c0-82312652b720"
        }
      }],
      "identifier" : [{
        "value" : "urn:uuid:b2eb3d0e-5de5-4de9-b2a3-0ff321ad1c3a"
      }],
      "status" : "unknown",
      "category" : [{
        "coding" : [{
          "system" : "http://medcomfhir.dk/ig/terminology/CodeSystem/medcom-careCommunication-categoryCodes",
          "code" : "acute-ambulant"
        }]
      }],
      "subject" : {
        "reference" : "Patient/9fcf448a-4628-45e1-9098-0dd8de0e7e76"
      },
      "topic" : {
        "text" : "Kritisk tilstand"
      },
      "recipient" : [{
        "reference" : "PractitionerRole/2d808d61-69ec-4040-b6f8-2be94926f86e"
      }],
      "payload" : [{
        "extension" : [{
          "url" : "http://medcomfhir.dk/ig/core/StructureDefinition/medcom-core-datetime-extension",
          "valueDateTime" : "2024-09-05T14:00:00+02:00"
        },
        {
          "url" : "http://medcomfhir.dk/ig/core/StructureDefinition/medcom-core-identifier-extension",
          "valueIdentifier" : {
            "value" : "urn:uuid:c87eb7b4-4680-499f-b6dd-49b0581ca5c6",
            "assigner" : {
              "reference" : "Organization/09844b02-9647-49e1-92ae-37dc5c721888"
            }
          }
        },
        {
          "url" : "http://medcomfhir.dk/ig/core/StructureDefinition/medcom-core-practitioner-extension",
          "valueReference" : {
            "reference" : "PractitionerRole/2b9a1598-4147-472c-9f8a-712bb7479c57"
          }
        },
        {
          "url" : "http://medcomfhir.dk/ig/core/StructureDefinition/medcom-core-contact-extension",
          "valueContactPoint" : {
            "system" : "phone",
            "value" : "38683868"
          }
        }],
        "contentString" : "Til rette vedkommende på Arden Lægehus. Vedr. henvisningen af Elmer fra udskrivelse ønsker, vi at gøre jer opmærksomme på hans kritiske tilstand, som beskrevet i henvisningen. It contains the information you requested over the phone:\nProin aliquet sit amet justo quis auctor. Integer malesuada tempor purus sit amet dictum. Nulla dictum pharetra erat sit amet faucibus. Fusce porttitor, lectus sed volutpat pulvinar, tortor leo sodales elit, non mattis ligula enim dignissim ex. Donec ornare laoreet elit dapibus maximus. Mauris malesuada enim vitae ligula feugiat, eget rutrum orci auctor. Aenean feugiat volutpat magna ut venenatis. Proin eu ornare metus, in pretium sem. Aenean id bibendum urna. Sed ultricies mauris in erat bibendum rhoncus. Suspendisse ac porttitor tellus. Sed molestie pharetra turpis, pellentesque ultrices tortor sodales sit amet. Integer et nulla luctus, fermentum felis eget, consequat est. Curabitur sed blandit nunc. Etiam cursus neque id diam consequat pharetra. Orci varius natoque penatibus et magnis dis parturient montes, nascetur ridiculus mus.\nNulla vitae lectus ut ipsum lobortis porttitor id eu purus. In finibus erat vitae orci volutpat, in euismod lorem dignissim. Vivamus volutpat orci sit amet velit pulvinar, id elementum lacus placerat. Donec scelerisque ligula at risus auctor venenatis ac et nibh. Donec eget cursus ipsum. Etiam interdum, velit vitae pulvinar egestas, quam risus interdum nisi, ut porta odio magna at diam. Cras dignissim tempor urna id condimentum. Cras molestie sagittis venenatis. Aenean at rutrum tellus, sit amet mollis elit.\nPraesent dictum lacinia enim sit amet scelerisque. Proin cursus enim luctus mi fringilla rhoncus. Praesent sagittis, erat vel auctor pretium, elit leo vulputate quam, a tincidunt ante justo sit amet eros. Duis condimentum, dui sed finibus convallis, ipsum neque dictum mauris, quis pulvinar mauris mi feugiat enim. Proin ullamcorper nibh lorem, nec consequat erat rhoncus ut. Praesent nisi ligula, molestie in nulla a, interdum sagittis neque. Nulla viverra elit ac eros mattis ultricies. Pellentesque a iaculis tellus.\nLorem ipsum dolor sit amet, consectetur adipiscing elit. Phasellus commodo nibh nulla, sit amet interdum ex condimentum ac. Mauris sodales placerat mollis. Suspendisse non quam pretium, ultricies nisl in, vehicula neque. Vestibulum ante ipsum primis in faucibus orci luctus et ultrices posuere cubilia curae; Ut condimentum vel orci efficitur viverra. Praesent posuere molestie lacus at consectetur. Vivamus pharetra, eros vel porta pretium, urna sem sodales nisi, ac tristique massa nisl nec sem. Donec at massa non felis ullamcorper eleifend. Morbi sit amet pharetra orci. Vivamus laoreet viverra tempor.\nThis journal note is written by Hans Hansen on the 20th of November 2022 after a hospitalisation.\nProin aliquet sit amet justo quis auctor. Integer malesuada tempor purus sit amet dictum. Nulla dictum pharetra erat sit amet faucibus. Fusce porttitor, lectus sed volutpat pulvinar, tortor leo sodales elit, non mattis ligula enim dignissim ex. Donec ornare laoreet elit dapibus maximus. Mauris malesuada enim vitae ligula feugiat, eget rutrum orci auctor. Aenean feugiat volutpat magna ut venenatis. Proin eu ornare metus, in pretium sem. Aenean id bibendum urna. Sed ultricies mauris in erat bibendum rhoncus. Suspendisse ac porttitor tellus. Sed molestie pharetra turpis, pellentesque ultrices tortor sodales sit amet. Integer et nulla luctus, fermentum felis eget, consequat est. Curabitur sed blandit nunc. Etiam cursus neque id diam consequat pharetra. Orci varius natoque penatibus et magnis dis parturient montes, nascetur ridiculus mus.\nNulla vitae lectus ut ipsum lobortis porttitor id eu purus. In finibus erat vitae orci volutpat, in euismod lorem dignissim. Vivamus volutpat orci sit amet velit pulvinar, id elementum lacus placerat. Donec scelerisque ligula at risus auctor venenatis ac et nibh. Donec eget cursus ipsum. Etiam interdum, velit vitae pulvinar egestas, quam risus interdum nisi, ut porta odio magna at diam. Cras dignissim tempor urna id condimentum. Cras molestie sagittis venenatis. Aenean at rutrum tellus, sit amet mollis elit.\nPraesent dictum lacinia enim sit amet scelerisque. Proin cursus enim luctus mi fringilla rhoncus. Praesent sagittis, erat vel auctor pretium, elit leo vulputate quam, a tincidunt ante justo sit amet eros. Duis condimentum, dui sed finibus convallis, ipsum neque dictum mauris, quis pulvinar mauris mi feugiat enim. Proin ullamcorper nibh lorem, nec consequat erat rhoncus ut. Praesent nisi ligula, molestie in nulla a, interdum sagittis neque. Nulla viverra elit ac eros mattis ultricies. Pellentesque a iaculis tellus.\nLorem ipsum dolor sit amet, consectetur adipiscing elit. Phasellus commodo nibh nulla, sit amet interdum ex condimentum ac. Mauris sodales placerat mollis. Suspendisse non quam pretium, ultricies nisl in, vehicula neque. Vestibulum ante ipsum primis in faucibus orci luctus et ultrices posuere cubilia curae; Ut condimentum vel orci efficitur viverra. Praesent posuere molestie lacus at consectetur. Vivamus pharetra, eros vel porta pretium, urna sem sodales nisi, ac tristique massa nisl nec sem. Donec at massa non felis ullamcorper eleifend. Morbi sit amet pharetra orci. Vivamus laoreet viverra tempor.\nThis journal note is written by Hans Hansen on the 20th of November 2022 after a hospitalisation.\nProin aliquet sit amet justo quis auctor. Integer malesuada tempor purus sit amet dictum. Nulla dictum pharetra erat sit amet faucibus. Fusce porttitor, lectus sed volutpat pulvinar, tortor leo sodales elit, non mattis ligula enim dignissim ex. Donec ornare laoreet elit dapibus maximus. Mauris malesuada enim vitae ligula feugiat, eget rutrum orci auctor. Aenean feugiat volutpat magna ut venenatis. Proin eu ornare metus, in pretium sem. Aenean id bibendum urna. Sed ultricies mauris in erat bibendum rhoncus. Suspendisse ac porttitor tellus. Sed molestie pharetra turpis, pellentesque ultrices tortor sodales sit amet. Integer et nulla luctus, fermentum felis eget, consequat est. Curabitur sed blandit nunc. Etiam cursus neque id diam consequat pharetra. Orci varius natoque penatibus et magnis dis parturient montes, nascetur ridiculus mus.\nNulla vitae lectus ut ipsum lobortis porttitor id eu purus. In finibus erat vitae orci volutpat, in euismod lorem dignissim. Vivamus volutpat orci sit amet velit pulvinar, id elementum lacus placerat. Donec scelerisque ligula at risus auctor venenatis ac et nibh. Donec eget cursus ipsum. Etiam interdum, velit vitae pulvinar egestas, quam risus interdum nisi, ut porta odio magna at diam. Cras dignissim tempor urna id condimentum. Cras molestie sagittis venenatis. Aenean at rutrum tellus, sit amet mollis elit.\nPraesent dictum lacinia enim sit amet scelerisque. Proin cursus enim luctus mi fringilla rhoncus. Praesent sagittis, erat vel auctor pretium, elit leo vulputate quam, a tincidunt ante justo sit amet eros. Duis condimentum, dui sed finibus convallis, ipsum neque dictum mauris, quis pulvinar mauris mi feugiat enim. Proin ullamcorper nibh lorem, nec consequat erat rhoncus ut. Praesent nisi ligula, molestie in nulla a, interdum sagittis neque. Nulla viverra elit ac eros mattis ultricies. Pellentesque a iaculis tellus.\nLorem ipsum dolor sit amet, consectetur adipiscing elit. Phasellus commodo nibh nulla, sit amet interdum ex condimentum ac. Mauris sodales placerat mollis. Suspendisse non quam pretium, ultricies nisl in, vehicula neque. Vestibulum ante ipsum primis in faucibus orci luctus et ultrices posuere cubilia curae; Ut condimentum vel orci efficitur viverra. Praesent posuere molestie lacus at consectetur. Vivamus pharetra, eros vel porta pretium, urna sem sodales nisi, ac tristique massa nisl nec sem. Donec at massa non felis ullamcorper eleifend. Morbi sit amet pharetra orci. Vivamus laoreet viverra tempor.\nThis journal note is written by Hans Hansen on the 20th of November 2022 after a hospitalisation.\nProin aliquet sit amet justo quis auctor. Integer malesuada tempor purus sit amet dictum. Nulla dictum pharetra erat sit amet faucibus. Fusce porttitor, lectus sed volutpat pulvinar, tortor leo sodales elit, non mattis ligula enim dignissim ex. Donec ornare laoreet elit dapibus maximus. Mauris malesuada enim vitae ligula feugiat, eget rutrum orci auctor. Aenean feugiat volutpat magna ut venenatis. Proin eu ornare metus, in pretium sem. Aenean id bibendum urna. Sed ultricies mauris in erat bibendum rhoncus. Suspendisse ac porttitor tellus. Sed molestie pharetra turpis, pellentesque ultrices tortor sodales sit amet. Integer et nulla luctus, fermentum felis eget, consequat est. Curabitur sed blandit nunc. Etiam cursus neque id diam consequat pharetra. Orci varius natoque penatibus et magnis dis parturient montes, nascetur ridiculus mus.\nNulla vitae lectus ut ipsum lobortis porttitor id eu purus. In finibus erat vitae orci volutpat, in euismod lorem dignissim. Vivamus volutpat orci sit amet velit pulvinar, id elementum lacus placerat. Donec scelerisque ligula at risus auctor venenatis ac et nibh. Donec eget cursus ipsum. Etiam interdum, velit vitae pulvinar egestas, quam risus interdum nisi, ut porta odio magna at diam. Cras dignissim tempor urna id condimentum. Cras molestie sagittis venenatis. Aenean at rutrum tellus, sit amet mollis elit.\nPraesent dictum lacinia enim sit amet scelerisque. Proin cursus enim luctus mi fringilla rhoncus. Praesent sagittis, erat vel auctor pretium, elit leo vulputate quam, a tincidunt ante justo sit amet eros. Duis condimentum, dui sed finibus convallis, ipsum neque dictum mauris, quis pulvinar mauris mi feugiat enim. Proin ullamcorper nibh lorem, nec consequat erat rhoncus ut. Praesent nisi ligula, molestie in nulla a, interdum sagittis neque. Nulla viverra elit ac eros mattis ultricies. Pellentesque a iaculis tellus.\nLorem ipsum dolor sit amet, consectetur adipiscing elit. Phasellus commodo nibh nulla, sit amet interdum ex condimentum ac. Mauris sodales placerat mollis. Suspendisse non quam pretium, ultricies nisl in, vehicula neque. Vestibulum ante ipsum primis in faucibus orci luctus et ultrices posuere cubilia curae; Ut condimentum vel orci efficitur viverra. Praesent posuere molestie lacus at consectetur. Vivamus pharetra, eros vel porta pretium, urna sem sodales nisi, ac tristique massa nisl nec sem. Donec at massa non felis ullamcorper eleifend. Morbi sit amet pharetra orci. Vivamus laoreet viverra tempor.\nThis journal note is written by Hans Hansen on the 20th of November 2022 after a hospitalisation.\nHilsen Michael Burns\nSygeplejerske"
      }]
    }
  },
  {
    "fullUrl" : "https://medcomfhir.dk/ig/carecommunication/PractitionerRole/2b9a1598-4147-472c-9f8a-712bb7479c57",
    "resource" : {
      "resourceType" : "PractitionerRole",
      "id" : "2b9a1598-4147-472c-9f8a-712bb7479c57",
      "meta" : {
        "profile" : ["http://medcomfhir.dk/ig/core/StructureDefinition/medcom-core-practitionerrole|3.0.1"]
      },
      "text" : {
        "status" : "generated",
        "div" : "<div xmlns=\"http://www.w3.org/1999/xhtml\"><a name=\"PractitionerRole_2b9a1598-4147-472c-9f8a-712bb7479c57\"> </a><p class=\"res-header-id\"><b>Generated Narrative: PractitionerRole 2b9a1598-4147-472c-9f8a-712bb7479c57</b></p><a name=\"2b9a1598-4147-472c-9f8a-712bb7479c57\"> </a><a name=\"hc2b9a1598-4147-472c-9f8a-712bb7479c57\"> </a><div style=\"display: inline-block; background-color: #d9e0e7; padding: 6px; margin: 4px; border: 1px solid #8da1b4; border-radius: 5px; line-height: 60%\"><p style=\"margin-bottom: 0px\"/><p style=\"margin-bottom: 0px\">Profile: <a href=\"http://medcomfhir.dk/ig/core/3.0.1/StructureDefinition-medcom-core-practitionerrole.html\">MedComCorePractitionerRoleversion: null3.0.1)</a></p></div><p><b>practitioner</b>: <a href=\"Practitioner-b19a6a37-ec37-4dbb-95ca-1e0c92378c7e.html\">Practitioner Michael Burns </a></p><p><b>code</b>: <span title=\"Codes:{http://medcomfhir.dk/ig/terminology/CodeSystem/medcom-core-PractitionerRolesSKSadministrativ socialogsundhedsmedhjaelper}\">Social- og sundhedsmedhjælper</span></p></div>"
      },
      "practitioner" : {
        "reference" : "Practitioner/b19a6a37-ec37-4dbb-95ca-1e0c92378c7e"
      },
      "code" : [{
        "coding" : [{
          "system" : "http://medcomfhir.dk/ig/terminology/CodeSystem/medcom-core-PractitionerRolesSKSadministrativ",
          "code" : "socialogsundhedsmedhjaelper"
        }]
      }]
    }
  },
  {
    "fullUrl" : "https://medcomfhir.dk/ig/carecommunication/Practitioner/b19a6a37-ec37-4dbb-95ca-1e0c92378c7e",
    "resource" : {
      "resourceType" : "Practitioner",
      "id" : "b19a6a37-ec37-4dbb-95ca-1e0c92378c7e",
      "meta" : {
        "profile" : ["http://medcomfhir.dk/ig/core/StructureDefinition/medcom-core-practitioner|3.0.1"]
      },
      "text" : {
        "status" : "generated",
        "div" : "<div xmlns=\"http://www.w3.org/1999/xhtml\"><a name=\"Practitioner_b19a6a37-ec37-4dbb-95ca-1e0c92378c7e\"> </a><p class=\"res-header-id\"><b>Generated Narrative: Practitioner b19a6a37-ec37-4dbb-95ca-1e0c92378c7e</b></p><a name=\"b19a6a37-ec37-4dbb-95ca-1e0c92378c7e\"> </a><a name=\"hcb19a6a37-ec37-4dbb-95ca-1e0c92378c7e\"> </a><div style=\"display: inline-block; background-color: #d9e0e7; padding: 6px; margin: 4px; border: 1px solid #8da1b4; border-radius: 5px; line-height: 60%\"><p style=\"margin-bottom: 0px\"/><p style=\"margin-bottom: 0px\">Profile: <a href=\"http://medcomfhir.dk/ig/core/3.0.1/StructureDefinition-medcom-core-practitioner.html\">MedComCorePractitionerversion: null3.0.1)</a></p></div><p><b>name</b>: Michael Burns </p></div>"
      },
      "name" : [{
        "family" : "Burns",
        "given" : ["Michael"]
      }]
    }
  },
  {
    "fullUrl" : "https://medcomfhir.dk/ig/carecommunication/PractitionerRole/2d808d61-69ec-4040-b6f8-2be94926f86e",
    "resource" : {
      "resourceType" : "PractitionerRole",
      "id" : "2d808d61-69ec-4040-b6f8-2be94926f86e",
      "meta" : {
        "profile" : ["http://medcomfhir.dk/ig/core/StructureDefinition/medcom-core-practitionerrole|3.0.1"]
      },
      "text" : {
        "status" : "generated",
        "div" : "<div xmlns=\"http://www.w3.org/1999/xhtml\"><a name=\"PractitionerRole_2d808d61-69ec-4040-b6f8-2be94926f86e\"> </a><p class=\"res-header-id\"><b>Generated Narrative: PractitionerRole 2d808d61-69ec-4040-b6f8-2be94926f86e</b></p><a name=\"2d808d61-69ec-4040-b6f8-2be94926f86e\"> </a><a name=\"hc2d808d61-69ec-4040-b6f8-2be94926f86e\"> </a><div style=\"display: inline-block; background-color: #d9e0e7; padding: 6px; margin: 4px; border: 1px solid #8da1b4; border-radius: 5px; line-height: 60%\"><p style=\"margin-bottom: 0px\"/><p style=\"margin-bottom: 0px\">Profile: <a href=\"http://medcomfhir.dk/ig/core/3.0.1/StructureDefinition-medcom-core-practitionerrole.html\">MedComCorePractitionerRoleversion: null3.0.1)</a></p></div><p><b>practitioner</b>: <a href=\"Practitioner-c2984887-1df7-4e43-8621-22bd6bac37c8.html\">Practitioner Birgit Berggren </a></p><p><b>organization</b>: <a href=\"Organization-26bfb2de-a811-4744-9883-9a50c59e710d.html\">Organization Sundhedsplejen, Aabenraa kommune</a></p><p><b>code</b>: <span title=\"Codes:\">Visitator</span></p></div>"
      },
      "practitioner" : {
        "reference" : "Practitioner/c2984887-1df7-4e43-8621-22bd6bac37c8"
      },
      "organization" : {
        "reference" : "Organization/26bfb2de-a811-4744-9883-9a50c59e710d"
      },
      "code" : [{
        "text" : "Visitator"
      }]
    }
  },
  {
    "fullUrl" : "https://medcomfhir.dk/ig/carecommunication/Practitioner/c2984887-1df7-4e43-8621-22bd6bac37c8",
    "resource" : {
      "resourceType" : "Practitioner",
      "id" : "c2984887-1df7-4e43-8621-22bd6bac37c8",
      "meta" : {
        "profile" : ["http://medcomfhir.dk/ig/core/StructureDefinition/medcom-core-practitioner|3.0.1"]
      },
      "text" : {
        "status" : "generated",
        "div" : "<div xmlns=\"http://www.w3.org/1999/xhtml\"><a name=\"Practitioner_c2984887-1df7-4e43-8621-22bd6bac37c8\"> </a><p class=\"res-header-id\"><b>Generated Narrative: Practitioner c2984887-1df7-4e43-8621-22bd6bac37c8</b></p><a name=\"c2984887-1df7-4e43-8621-22bd6bac37c8\"> </a><a name=\"hcc2984887-1df7-4e43-8621-22bd6bac37c8\"> </a><div style=\"display: inline-block; background-color: #d9e0e7; padding: 6px; margin: 4px; border: 1px solid #8da1b4; border-radius: 5px; line-height: 60%\"><p style=\"margin-bottom: 0px\"/><p style=\"margin-bottom: 0px\">Profile: <a href=\"http://medcomfhir.dk/ig/core/3.0.1/StructureDefinition-medcom-core-practitioner.html\">MedComCorePractitionerversion: null3.0.1)</a></p></div><p><b>name</b>: Birgit Berggren </p></div>"
      },
      "name" : [{
        "family" : "Berggren",
        "given" : ["Birgit"]
      }]
    }
  },
  {
    "fullUrl" : "https://medcomfhir.dk/ig/carecommunication/CareTeam/48aa320d-dd35-40b8-a6c0-82312652b720",
    "resource" : {
      "resourceType" : "CareTeam",
      "id" : "48aa320d-dd35-40b8-a6c0-82312652b720",
      "meta" : {
        "profile" : ["http://medcomfhir.dk/ig/core/StructureDefinition/medcom-core-careteam|3.0.1"]
      },
      "text" : {
        "status" : "generated",
        "div" : "<div xmlns=\"http://www.w3.org/1999/xhtml\"><a name=\"CareTeam_48aa320d-dd35-40b8-a6c0-82312652b720\"> </a><p class=\"res-header-id\"><b>Generated Narrative: CareTeam 48aa320d-dd35-40b8-a6c0-82312652b720</b></p><a name=\"48aa320d-dd35-40b8-a6c0-82312652b720\"> </a><a name=\"hc48aa320d-dd35-40b8-a6c0-82312652b720\"> </a><div style=\"display: inline-block; background-color: #d9e0e7; padding: 6px; margin: 4px; border: 1px solid #8da1b4; border-radius: 5px; line-height: 60%\"><p style=\"margin-bottom: 0px\"/><p style=\"margin-bottom: 0px\">Profile: <a href=\"http://medcomfhir.dk/ig/core/3.0.1/StructureDefinition-medcom-core-careteam.html\">MedComCoreCareTeamversion: null3.0.1)</a></p></div><p><b>name</b>: Team +80 år</p><p><b>managingOrganization</b>: <a href=\"Organization-09844b02-9647-49e1-92ae-37dc5c721888.html\">Organization Klinik for Ældresygdomme, AUH, Skejby</a></p></div>"
      },
      "name" : "Team +80 år",
      "managingOrganization" : [{
        "reference" : "Organization/09844b02-9647-49e1-92ae-37dc5c721888"
      }]
    }
  },
  {
    "fullUrl" : "https://medcomfhir.dk/ig/carecommunication/Organization/09844b02-9647-49e1-92ae-37dc5c721888",
    "resource" : {
      "resourceType" : "Organization",
      "id" : "09844b02-9647-49e1-92ae-37dc5c721888",
      "meta" : {
        "profile" : ["http://medcomfhir.dk/ig/messaging/StructureDefinition/medcom-messaging-organization|4.0.1"]
      },
      "text" : {
        "status" : "generated",
        "div" : "<div xmlns=\"http://www.w3.org/1999/xhtml\"><a name=\"Organization_09844b02-9647-49e1-92ae-37dc5c721888\"> </a><p class=\"res-header-id\"><b>Generated Narrative: Organization 09844b02-9647-49e1-92ae-37dc5c721888</b></p><a name=\"09844b02-9647-49e1-92ae-37dc5c721888\"> </a><a name=\"hc09844b02-9647-49e1-92ae-37dc5c721888\"> </a><div style=\"display: inline-block; background-color: #d9e0e7; padding: 6px; margin: 4px; border: 1px solid #8da1b4; border-radius: 5px; line-height: 60%\"><p style=\"margin-bottom: 0px\"/><p style=\"margin-bottom: 0px\">Profile: <a href=\"http://medcomfhir.dk/ig/messaging/4.0.1/StructureDefinition-medcom-messaging-organization.html\">MedComMessagingOrganizationversion: null4.0.1)</a></p></div><p><b>identifier</b>: <code>https://www.gs1.org/gln</code>/5790001987244, <code>urn:oid:1.2.208.176.1.1</code>/441211000016000</p><p><b>name</b>: Klinik for Ældresygdomme, AUH, Skejby</p></div>"
      },
      "identifier" : [{
        "system" : "https://www.gs1.org/gln",
        "value" : "5790001987244"
      },
      {
        "system" : "urn:oid:1.2.208.176.1.1",
        "value" : "441211000016000"
      }],
      "name" : "Klinik for Ældresygdomme, AUH, Skejby"
    }
  },
  {
    "fullUrl" : "https://medcomfhir.dk/ig/carecommunication/Organization/26bfb2de-a811-4744-9883-9a50c59e710d",
    "resource" : {
      "resourceType" : "Organization",
      "id" : "26bfb2de-a811-4744-9883-9a50c59e710d",
      "meta" : {
        "profile" : ["http://medcomfhir.dk/ig/messaging/StructureDefinition/medcom-messaging-organization|4.0.1"]
      },
      "text" : {
        "status" : "generated",
        "div" : "<div xmlns=\"http://www.w3.org/1999/xhtml\"><a name=\"Organization_26bfb2de-a811-4744-9883-9a50c59e710d\"> </a><p class=\"res-header-id\"><b>Generated Narrative: Organization 26bfb2de-a811-4744-9883-9a50c59e710d</b></p><a name=\"26bfb2de-a811-4744-9883-9a50c59e710d\"> </a><a name=\"hc26bfb2de-a811-4744-9883-9a50c59e710d\"> </a><div style=\"display: inline-block; background-color: #d9e0e7; padding: 6px; margin: 4px; border: 1px solid #8da1b4; border-radius: 5px; line-height: 60%\"><p style=\"margin-bottom: 0px\"/><p style=\"margin-bottom: 0px\">Profile: <a href=\"http://medcomfhir.dk/ig/messaging/4.0.1/StructureDefinition-medcom-messaging-organization.html\">MedComMessagingOrganizationversion: null4.0.1)</a></p></div><p><b>identifier</b>: <code>https://www.gs1.org/gln</code>/5790001353308, <code>urn:oid:1.2.208.176.1.1</code>/330461000016004</p><p><b>name</b>: Sundhedsplejen, Aabenraa kommune</p></div>"
      },
      "identifier" : [{
        "system" : "https://www.gs1.org/gln",
        "value" : "5790001353308"
      },
      {
        "system" : "urn:oid:1.2.208.176.1.1",
        "value" : "330461000016004"
      }],
      "name" : "Sundhedsplejen, Aabenraa kommune"
    }
  },
  {
    "fullUrl" : "https://medcomfhir.dk/ig/carecommunication/Provenance/3534b272-253d-47ce-ba7b-19ec946d95a2",
    "resource" : {
      "resourceType" : "Provenance",
      "id" : "3534b272-253d-47ce-ba7b-19ec946d95a2",
      "meta" : {
        "profile" : ["http://medcomfhir.dk/ig/carecommunication/StructureDefinition/medcom-careCommunication-provenance"]
      },
      "text" : {
        "status" : "generated",
        "div" : "<div xmlns=\"http://www.w3.org/1999/xhtml\"><a name=\"Provenance_3534b272-253d-47ce-ba7b-19ec946d95a2\"> </a><p class=\"res-header-id\"><b>Generated Narrative: Provenance 3534b272-253d-47ce-ba7b-19ec946d95a2</b></p><a name=\"3534b272-253d-47ce-ba7b-19ec946d95a2\"> </a><a name=\"hc3534b272-253d-47ce-ba7b-19ec946d95a2\"> </a><div style=\"display: inline-block; background-color: #d9e0e7; padding: 6px; margin: 4px; border: 1px solid #8da1b4; border-radius: 5px; line-height: 60%\"><p style=\"margin-bottom: 0px\"/><p style=\"margin-bottom: 0px\">Profile: <a href=\"http://medcomfhir.dk/ig/carecommunication/5.0.1/StructureDefinition-medcom-careCommunication-provenance.html\">MedComCareCommunicationProvenance</a></p></div><p>Provenance for <a href=\"MessageHeader-0ebb6284-eb20-45eb-8113-6620d2d08608.html\">MessageHeader: event[x] = Care Communication Message (MedComMessagingEventCodes#care-communication-message); definition = http://medcomfhir.dk/ig/messagedefinitions/MessageDefinition/MedComCareCommunicationMessageDefinition|5.0</a></p><p>Summary</p><table class=\"grid\"><tr><td>Occurrence</td><td>2024-09-05 14:00:00+0200</td></tr><tr><td>Recorded</td><td>2024-09-05 14:00:00+0200</td></tr><tr><td>Activity</td><td><span title=\"Codes:{http://medcomfhir.dk/ig/terminology/CodeSystem/medcom-messaging-activityCodes new-message}\">A new message has been sent</span></td></tr></table><p><b>Agents</b></p><table class=\"grid\"><tr><td><b>who</b></td></tr><tr><td><a href=\"Organization-09844b02-9647-49e1-92ae-37dc5c721888.html\">Organization Klinik for Ældresygdomme, AUH, Skejby</a></td></tr></table></div>"
      },
      "target" : [{
        "reference" : "MessageHeader/0ebb6284-eb20-45eb-8113-6620d2d08608"
      }],
      "occurredDateTime" : "2024-09-05T14:00:00+02:00",
      "recorded" : "2024-09-05T14:00:00+02:00",
      "activity" : {
        "coding" : [{
          "system" : "http://medcomfhir.dk/ig/terminology/CodeSystem/medcom-messaging-activityCodes",
          "code" : "new-message"
        }]
      },
      "agent" : [{
        "who" : {
          "reference" : "Organization/09844b02-9647-49e1-92ae-37dc5c721888"
        }
      }],
      "entity" : [{
        "role" : "source",
        "what" : {
          "identifier" : {
            "value" : "urn:uuid:c87eb7b4-4680-499f-b6dd-49b0581ca5c6"
          }
        }
      }]
    }
  }]
}