<?xml version="1.0" encoding="UTF-8"?>

<Bundle xmlns="http://hl7.org/fhir">
  <id value="S-Tek-C-new-7be9d2ba-6026-4f19-850c-896de206f2c2"/>
  <meta>
    <profile value="http://medcomfhir.dk/ig/carecommunication/StructureDefinition/medcom-careCommunication-message|5.0.1"/>
  </meta>
  <type value="message"/>
  <timestamp value="2024-08-12T11:30:00+02:00"/>
  <entry>
    <fullUrl value="https://medcomfhir.dk/ig/carecommunication/MessageHeader/f927c454-ef3e-4f60-9640-6727961d6a1f"/>
    <resource>
      <MessageHeader>
        <id value="f927c454-ef3e-4f60-9640-6727961d6a1f"/>
        <meta>
          <profile value="http://medcomfhir.dk/ig/carecommunication/StructureDefinition/medcom-careCommunication-messageHeader|5.0.1"/>
        </meta>
        <text>
          <status value="generated"/><div xmlns="http://www.w3.org/1999/xhtml"><a name="MessageHeader_f927c454-ef3e-4f60-9640-6727961d6a1f"> </a><p class="res-header-id"><b>Generated Narrative: MessageHeader f927c454-ef3e-4f60-9640-6727961d6a1f</b></p><a name="f927c454-ef3e-4f60-9640-6727961d6a1f"> </a><a name="hcf927c454-ef3e-4f60-9640-6727961d6a1f"> </a><div style="display: inline-block; background-color: #d9e0e7; padding: 6px; margin: 4px; border: 1px solid #8da1b4; border-radius: 5px; line-height: 60%"><p style="margin-bottom: 0px"/><p style="margin-bottom: 0px">Profile: <a href="http://medcomfhir.dk/ig/carecommunication/5.0.1/StructureDefinition-medcom-careCommunication-messageHeader.html">MedComCareCommunicationMessageHeaderversion: null5.0.1)</a></p></div><p><b>event</b>: <a href="http://medcomfhir.dk/ig/terminology/2.0.1/CodeSystem-medcom-messaging-eventCodes.html#medcom-messaging-eventCodes-care-communication-message">MedComMessagingEventCodes care-communication-message</a>: Care Communication Message</p><h3>Destinations</h3><table class="grid"><tr><td style="display: none">-</td><td><b>Extension</b></td><td><b>Endpoint</b></td><td><b>Receiver</b></td></tr><tr><td style="display: none">*</td><td/><td><a href="https://sor2.sum.dsdn.dk/#id=382871000016004">https://sor2.sum.dsdn.dk/#id=382871000016004</a></td><td><a href="Organization-46037d39-bd84-4419-b132-fa9d9e9c6134.html">Organization Arden Lægehus</a></td></tr></table><p><b>sender</b>: <a href="Organization-48038043-9a8c-402e-9828-2bb4f4b74d24.html">Organization Hjerteafdelingen på Herlev og Gentofte hospital</a></p><h3>Sources</h3><table class="grid"><tr><td style="display: none">-</td><td><b>Endpoint</b></td></tr><tr><td style="display: none">*</td><td><a href="https://sor2.sum.dsdn.dk/#id=265161000016000">https://sor2.sum.dsdn.dk/#id=265161000016000</a></td></tr></table><p><b>focus</b>: <a href="Communication-aa5c8b0e-cfb9-4eb6-b1f1-7e96195d4042.html">Communication: identifier = urn:uuid:18fa94f2-d40d-46a6-b50d-4086c8e184ad; status = unknown; category = Undersøgelsessvar; topic = </a></p><p><b>definition</b>: <a href="http://medcomfhir.dk/ig/messagedefinitions/1.0.0/MessageDefinition-MedComCareCommunicationMessageDefinitionV5.0.html">http://medcomfhir.dk/ig/messagedefinitions/MessageDefinition/MedComCareCommunicationMessageDefinition|5.0</a></p></div>
        </text>
        <eventCoding>
          <system value="http://medcomfhir.dk/ig/terminology/CodeSystem/medcom-messaging-eventCodes"/>
          <code value="care-communication-message"/>
        </eventCoding>
        <destination>
          <extension url="http://medcomfhir.dk/ig/messaging/StructureDefinition/medcom-messaging-destinationUseExtension">
            <valueCoding>
              <system value="http://medcomfhir.dk/ig/terminology/CodeSystem/medcom-messaging-destinationUse"/>
              <code value="primary"/>
            </valueCoding>
          </extension>
          <endpoint value="https://sor2.sum.dsdn.dk/#id=382871000016004"/>
          <receiver>
            <reference value="Organization/46037d39-bd84-4419-b132-fa9d9e9c6134"/>
          </receiver>
        </destination>
        <sender>
          <reference value="Organization/48038043-9a8c-402e-9828-2bb4f4b74d24"/>
        </sender>
        <source>
          <endpoint value="https://sor2.sum.dsdn.dk/#id=265161000016000"/>
        </source>
        <focus>
          <reference value="Communication/aa5c8b0e-cfb9-4eb6-b1f1-7e96195d4042"/>
        </focus>
        <definition value="http://medcomfhir.dk/ig/messagedefinitions/MessageDefinition/MedComCareCommunicationMessageDefinition|5.0"/>
      </MessageHeader>
    </resource>
  </entry>
  <entry>
    <fullUrl value="https://medcomfhir.dk/ig/carecommunication/Patient/0a709ba8-090b-4c03-8040-a23601d0b15a"/>
    <resource>
      <Patient>
        <id value="0a709ba8-090b-4c03-8040-a23601d0b15a"/>
        <meta>
          <profile value="http://medcomfhir.dk/ig/core/StructureDefinition/medcom-core-patient|3.0.1"/>
        </meta>
        <text>
          <status value="generated"/><div xmlns="http://www.w3.org/1999/xhtml"><a name="Patient_0a709ba8-090b-4c03-8040-a23601d0b15a"> </a><p class="res-header-id"><b>Generated Narrative: Patient 0a709ba8-090b-4c03-8040-a23601d0b15a</b></p><a name="0a709ba8-090b-4c03-8040-a23601d0b15a"> </a><a name="hc0a709ba8-090b-4c03-8040-a23601d0b15a"> </a><div style="display: inline-block; background-color: #d9e0e7; padding: 6px; margin: 4px; border: 1px solid #8da1b4; border-radius: 5px; line-height: 60%"><p style="margin-bottom: 0px"/><p style="margin-bottom: 0px">Profile: <a href="http://medcomfhir.dk/ig/core/3.0.1/StructureDefinition-medcom-core-patient.html">MedComCorePatientversion: null3.0.1)</a></p></div><p style="border: 1px #661aff solid; background-color: #e6e6ff; padding: 10px;">Bruno Elmer (official) (no stated gender), DoB Unknown ( urn:oid:1.2.208.176.1.2#2509479989)</p><hr/></div>
        </text>
        <identifier>
          <system value="urn:oid:1.2.208.176.1.2"/>
          <value value="2509479989"/>
        </identifier>
        <name>
          <use value="official"/>
          <family value="Elmer"/>
          <given value="Bruno"/>
        </name>
      </Patient>
    </resource>
  </entry>
  <entry>
    <fullUrl value="https://medcomfhir.dk/ig/carecommunication/Communication/aa5c8b0e-cfb9-4eb6-b1f1-7e96195d4042"/>
    <resource>
      <Communication>
        <id value="aa5c8b0e-cfb9-4eb6-b1f1-7e96195d4042"/>
        <meta>
          <profile value="http://medcomfhir.dk/ig/carecommunication/StructureDefinition/medcom-careCommunication-communication|5.0.1"/>
        </meta>
        <text>
          <status value="extensions"/><div xmlns="http://www.w3.org/1999/xhtml"><a name="Communication_aa5c8b0e-cfb9-4eb6-b1f1-7e96195d4042"> </a><p class="res-header-id"><b>Generated Narrative: Communication aa5c8b0e-cfb9-4eb6-b1f1-7e96195d4042</b></p><a name="aa5c8b0e-cfb9-4eb6-b1f1-7e96195d4042"> </a><a name="hcaa5c8b0e-cfb9-4eb6-b1f1-7e96195d4042"> </a><div style="display: inline-block; background-color: #d9e0e7; padding: 6px; margin: 4px; border: 1px solid #8da1b4; border-radius: 5px; line-height: 60%"><p style="margin-bottom: 0px"/><p style="margin-bottom: 0px">Profile: <a href="http://medcomfhir.dk/ig/carecommunication/5.0.1/StructureDefinition-medcom-careCommunication-communication.html">MedComCareCommunicationversion: null5.0.1)</a></p></div><p><b>identifier</b>: urn:uuid:18fa94f2-d40d-46a6-b50d-4086c8e184ad</p><p><b>status</b>: Unknown</p><p><b>category</b>: <span title="Codes:{http://medcomfhir.dk/ig/terminology/CodeSystem/medcom-careCommunication-categoryCodes examination-results}">Undersøgelsessvar</span></p><p><b>subject</b>: <a href="Patient-0a709ba8-090b-4c03-8040-a23601d0b15a.html">Bruno Elmer (official) (no stated gender), DoB Unknown ( urn:oid:1.2.208.176.1.2#2509479989)</a></p><p><b>topic</b>: <span title="Codes:">Forespørgsel på seneste resultater</span></p><blockquote><p><b>payload</b></p><p><b>DateTimeExtension</b>: 2024-08-11 12:00:00+0200</p><p><b>IdentifierExtension</b>: urn:uuid:24d01288-ad36-4af2-96a8-fd1432dadee1</p><p><b>PractitionerExtension</b>: <a href="PractitionerRole-b86979d0-efb2-4728-a4de-fe2c7cea93fd.html">PractitionerRole Sygeplejerske</a></p><p><b>ContactExtension</b>: ph: 38683868</p><p><b>content</b>: Til rette vedkommende. Vi ønsker information om de seneste undersøgelser udført på Bruno.
På forhånd tak.
Hilsen Michael Burns
Sygeplejerske</p></blockquote><blockquote><p><b>payload</b></p><p><b>DateTimeExtension</b>: 2024-08-12 11:30:00+0200</p><p><b>IdentifierExtension</b>: urn:uuid:ace97a0b-269f-4c67-a9e6-a5b7f20e160e</p><p><b>PractitionerExtension</b>: <a href="PractitionerRole-ad8bf8c0-6626-43cf-8d5a-1fa925c3c401.html">PractitionerRole Sygeplejerske</a></p><p><b>ContactExtension</b>: ph: 44527000</p><p><b>content</b>: Hej Michael, Resultaterne for undersøgelsen kommer her. Blodtryk 130/95 mmHg, vægt: 83 kg og højde: 179 cm. Blodprøven påviste ikke tegn på sukkersyge eller vitaminmangel. Se mere i den vedhæftede pdf.
Med venlig hilsen
Emma Waters
Sygeplejerske</p></blockquote></div>
        </text>
        <identifier>
          <value value="urn:uuid:18fa94f2-d40d-46a6-b50d-4086c8e184ad"/>
        </identifier>
        <status value="unknown"/>
        <category>
          <coding>
            <system value="http://medcomfhir.dk/ig/terminology/CodeSystem/medcom-careCommunication-categoryCodes"/>
            <code value="examination-results"/>
          </coding>
        </category>
        <subject>
          <reference value="Patient/0a709ba8-090b-4c03-8040-a23601d0b15a"/>
        </subject>
        <topic>
          <text value="Forespørgsel på seneste resultater"/>
        </topic>
        <payload>
          <extension url="http://medcomfhir.dk/ig/core/StructureDefinition/medcom-core-datetime-extension">
            <valueDateTime value="2024-08-11T12:00:00+02:00"/>
          </extension>
          <extension url="http://medcomfhir.dk/ig/core/StructureDefinition/medcom-core-identifier-extension">
            <valueIdentifier>
              <value value="urn:uuid:24d01288-ad36-4af2-96a8-fd1432dadee1"/>
              <assigner>
                <reference value="Organization/46037d39-bd84-4419-b132-fa9d9e9c6134"/>
              </assigner>
            </valueIdentifier>
          </extension>
          <extension url="http://medcomfhir.dk/ig/core/StructureDefinition/medcom-core-practitioner-extension">
            <valueReference>
              <reference value="PractitionerRole/b86979d0-efb2-4728-a4de-fe2c7cea93fd"/>
            </valueReference>
          </extension>
          <extension url="http://medcomfhir.dk/ig/core/StructureDefinition/medcom-core-contact-extension">
            <valueContactPoint>
              <system value="phone"/>
              <value value="38683868"/>
            </valueContactPoint>
          </extension>
          <contentString value="Til rette vedkommende. Vi ønsker information om de seneste undersøgelser udført på Bruno.&#xA;På forhånd tak.&#xA;Hilsen Michael Burns&#xA;Sygeplejerske"/>
        </payload>
        <payload>
          <extension url="http://medcomfhir.dk/ig/core/StructureDefinition/medcom-core-datetime-extension">
            <valueDateTime value="2024-08-12T11:30:00+02:00"/>
          </extension>
          <extension url="http://medcomfhir.dk/ig/core/StructureDefinition/medcom-core-identifier-extension">
            <valueIdentifier>
              <value value="urn:uuid:ace97a0b-269f-4c67-a9e6-a5b7f20e160e"/>
              <assigner>
                <reference value="Organization/48038043-9a8c-402e-9828-2bb4f4b74d24"/>
              </assigner>
            </valueIdentifier>
          </extension>
          <extension url="http://medcomfhir.dk/ig/core/StructureDefinition/medcom-core-practitioner-extension">
            <valueReference>
              <reference value="PractitionerRole/ad8bf8c0-6626-43cf-8d5a-1fa925c3c401"/>
            </valueReference>
          </extension>
          <extension url="http://medcomfhir.dk/ig/core/StructureDefinition/medcom-core-contact-extension">
            <valueContactPoint>
              <system value="phone"/>
              <value value="44527000"/>
            </valueContactPoint>
          </extension>
          <contentString value="Hej Michael, Resultaterne for undersøgelsen kommer her. Blodtryk 130/95 mmHg, vægt: 83 kg og højde: 179 cm. Blodprøven påviste ikke tegn på sukkersyge eller vitaminmangel. Se mere i den vedhæftede pdf.&#xA;Med venlig hilsen&#xA;Emma Waters&#xA;Sygeplejerske"/>
        </payload>
      </Communication>
    </resource>
  </entry>
  <entry>
    <fullUrl value="https://medcomfhir.dk/ig/carecommunication/PractitionerRole/ad8bf8c0-6626-43cf-8d5a-1fa925c3c401"/>
    <resource>
      <PractitionerRole>
        <id value="ad8bf8c0-6626-43cf-8d5a-1fa925c3c401"/>
        <meta>
          <profile value="http://medcomfhir.dk/ig/core/StructureDefinition/medcom-core-practitionerrole|3.0.1"/>
        </meta>
        <text>
          <status value="generated"/><div xmlns="http://www.w3.org/1999/xhtml"><a name="PractitionerRole_ad8bf8c0-6626-43cf-8d5a-1fa925c3c401"> </a><p class="res-header-id"><b>Generated Narrative: PractitionerRole ad8bf8c0-6626-43cf-8d5a-1fa925c3c401</b></p><a name="ad8bf8c0-6626-43cf-8d5a-1fa925c3c401"> </a><a name="hcad8bf8c0-6626-43cf-8d5a-1fa925c3c401"> </a><div style="display: inline-block; background-color: #d9e0e7; padding: 6px; margin: 4px; border: 1px solid #8da1b4; border-radius: 5px; line-height: 60%"><p style="margin-bottom: 0px"/><p style="margin-bottom: 0px">Profile: <a href="http://medcomfhir.dk/ig/core/3.0.1/StructureDefinition-medcom-core-practitionerrole.html">MedComCorePractitionerRoleversion: null3.0.1)</a></p></div><p><b>practitioner</b>: <a href="Practitioner-27162d09-991e-49af-b7f4-ca8e1a047f29.html">Practitioner Emma Waters </a></p><p><b>code</b>: <span title="Codes:{http://medcomfhir.dk/ig/terminology/CodeSystem/medcom-core-PractitionerRolesSKSadministrativ sygeplejerske}">Sygeplejerske</span></p></div>
        </text>
        <practitioner>
          <reference value="Practitioner/27162d09-991e-49af-b7f4-ca8e1a047f29"/>
        </practitioner>
        <code>
          <coding>
            <system value="http://medcomfhir.dk/ig/terminology/CodeSystem/medcom-core-PractitionerRolesSKSadministrativ"/>
            <code value="sygeplejerske"/>
          </coding>
        </code>
      </PractitionerRole>
    </resource>
  </entry>
  <entry>
    <fullUrl value="https://medcomfhir.dk/ig/carecommunication/Practitioner/27162d09-991e-49af-b7f4-ca8e1a047f29"/>
    <resource>
      <Practitioner>
        <id value="27162d09-991e-49af-b7f4-ca8e1a047f29"/>
        <meta>
          <profile value="http://medcomfhir.dk/ig/core/StructureDefinition/medcom-core-practitioner|3.0.1"/>
        </meta>
        <text>
          <status value="generated"/><div xmlns="http://www.w3.org/1999/xhtml"><a name="Practitioner_27162d09-991e-49af-b7f4-ca8e1a047f29"> </a><p class="res-header-id"><b>Generated Narrative: Practitioner 27162d09-991e-49af-b7f4-ca8e1a047f29</b></p><a name="27162d09-991e-49af-b7f4-ca8e1a047f29"> </a><a name="hc27162d09-991e-49af-b7f4-ca8e1a047f29"> </a><div style="display: inline-block; background-color: #d9e0e7; padding: 6px; margin: 4px; border: 1px solid #8da1b4; border-radius: 5px; line-height: 60%"><p style="margin-bottom: 0px"/><p style="margin-bottom: 0px">Profile: <a href="http://medcomfhir.dk/ig/core/3.0.1/StructureDefinition-medcom-core-practitioner.html">MedComCorePractitionerversion: null3.0.1)</a></p></div><p><b>name</b>: Emma Waters </p></div>
        </text>
        <name>
          <family value="Waters"/>
          <given value="Emma"/>
        </name>
      </Practitioner>
    </resource>
  </entry>
  <entry>
    <fullUrl value="https://medcomfhir.dk/ig/carecommunication/Practitioner/9583c018-8e84-4729-9ac0-8c887b4e6c5e"/>
    <resource>
      <Practitioner>
        <id value="9583c018-8e84-4729-9ac0-8c887b4e6c5e"/>
        <meta>
          <profile value="http://medcomfhir.dk/ig/core/StructureDefinition/medcom-core-practitioner|3.0.1"/>
        </meta>
        <text>
          <status value="generated"/><div xmlns="http://www.w3.org/1999/xhtml"><a name="Practitioner_9583c018-8e84-4729-9ac0-8c887b4e6c5e"> </a><p class="res-header-id"><b>Generated Narrative: Practitioner 9583c018-8e84-4729-9ac0-8c887b4e6c5e</b></p><a name="9583c018-8e84-4729-9ac0-8c887b4e6c5e"> </a><a name="hc9583c018-8e84-4729-9ac0-8c887b4e6c5e"> </a><div style="display: inline-block; background-color: #d9e0e7; padding: 6px; margin: 4px; border: 1px solid #8da1b4; border-radius: 5px; line-height: 60%"><p style="margin-bottom: 0px"/><p style="margin-bottom: 0px">Profile: <a href="http://medcomfhir.dk/ig/core/3.0.1/StructureDefinition-medcom-core-practitioner.html">MedComCorePractitionerversion: null3.0.1)</a></p></div><p><b>name</b>: Michael Burns </p></div>
        </text>
        <name>
          <family value="Burns"/>
          <given value="Michael"/>
        </name>
      </Practitioner>
    </resource>
  </entry>
  <entry>
    <fullUrl value="https://medcomfhir.dk/ig/carecommunication/PractitionerRole/b86979d0-efb2-4728-a4de-fe2c7cea93fd"/>
    <resource>
      <PractitionerRole>
        <id value="b86979d0-efb2-4728-a4de-fe2c7cea93fd"/>
        <meta>
          <profile value="http://medcomfhir.dk/ig/core/StructureDefinition/medcom-core-practitionerrole|3.0.1"/>
        </meta>
        <text>
          <status value="generated"/><div xmlns="http://www.w3.org/1999/xhtml"><a name="PractitionerRole_b86979d0-efb2-4728-a4de-fe2c7cea93fd"> </a><p class="res-header-id"><b>Generated Narrative: PractitionerRole b86979d0-efb2-4728-a4de-fe2c7cea93fd</b></p><a name="b86979d0-efb2-4728-a4de-fe2c7cea93fd"> </a><a name="hcb86979d0-efb2-4728-a4de-fe2c7cea93fd"> </a><div style="display: inline-block; background-color: #d9e0e7; padding: 6px; margin: 4px; border: 1px solid #8da1b4; border-radius: 5px; line-height: 60%"><p style="margin-bottom: 0px"/><p style="margin-bottom: 0px">Profile: <a href="http://medcomfhir.dk/ig/core/3.0.1/StructureDefinition-medcom-core-practitionerrole.html">MedComCorePractitionerRoleversion: null3.0.1)</a></p></div><p><b>practitioner</b>: <a href="Practitioner-9583c018-8e84-4729-9ac0-8c887b4e6c5e.html">Practitioner Michael Burns </a></p><p><b>code</b>: <span title="Codes:{http://medcomfhir.dk/ig/terminology/CodeSystem/medcom-core-PractitionerRolesSKSadministrativ sygeplejerske}">Sygeplejerske</span></p></div>
        </text>
        <practitioner>
          <reference value="Practitioner/9583c018-8e84-4729-9ac0-8c887b4e6c5e"/>
        </practitioner>
        <code>
          <coding>
            <system value="http://medcomfhir.dk/ig/terminology/CodeSystem/medcom-core-PractitionerRolesSKSadministrativ"/>
            <code value="sygeplejerske"/>
          </coding>
        </code>
      </PractitionerRole>
    </resource>
  </entry>
  <entry>
    <fullUrl value="https://medcomfhir.dk/ig/carecommunication/Organization/48038043-9a8c-402e-9828-2bb4f4b74d24"/>
    <resource>
      <Organization>
        <id value="48038043-9a8c-402e-9828-2bb4f4b74d24"/>
        <meta>
          <profile value="http://medcomfhir.dk/ig/messaging/StructureDefinition/medcom-messaging-organization|4.0.1"/>
        </meta>
        <text>
          <status value="generated"/><div xmlns="http://www.w3.org/1999/xhtml"><a name="Organization_48038043-9a8c-402e-9828-2bb4f4b74d24"> </a><p class="res-header-id"><b>Generated Narrative: Organization 48038043-9a8c-402e-9828-2bb4f4b74d24</b></p><a name="48038043-9a8c-402e-9828-2bb4f4b74d24"> </a><a name="hc48038043-9a8c-402e-9828-2bb4f4b74d24"> </a><div style="display: inline-block; background-color: #d9e0e7; padding: 6px; margin: 4px; border: 1px solid #8da1b4; border-radius: 5px; line-height: 60%"><p style="margin-bottom: 0px"/><p style="margin-bottom: 0px">Profile: <a href="http://medcomfhir.dk/ig/messaging/4.0.1/StructureDefinition-medcom-messaging-organization.html">MedComMessagingOrganizationversion: null4.0.1)</a></p></div><p><b>identifier</b>: <code>https://www.gs1.org/gln</code>/5790000209354, <code>urn:oid:1.2.208.176.1.1</code>/265161000016000</p><p><b>name</b>: Hjerteafdelingen på Herlev og Gentofte hospital</p></div>
        </text>
        <identifier>
          <system value="https://www.gs1.org/gln"/>
          <value value="5790000209354"/>
        </identifier>
        <identifier>
          <system value="urn:oid:1.2.208.176.1.1"/>
          <value value="265161000016000"/>
        </identifier>
        <name value="Hjerteafdelingen på Herlev og Gentofte hospital"/>
      </Organization>
    </resource>
  </entry>
  <entry>
    <fullUrl value="https://medcomfhir.dk/ig/carecommunication/Organization/46037d39-bd84-4419-b132-fa9d9e9c6134"/>
    <resource>
      <Organization>
        <id value="46037d39-bd84-4419-b132-fa9d9e9c6134"/>
        <meta>
          <profile value="http://medcomfhir.dk/ig/messaging/StructureDefinition/medcom-messaging-organization|4.0.1"/>
        </meta>
        <text>
          <status value="generated"/><div xmlns="http://www.w3.org/1999/xhtml"><a name="Organization_46037d39-bd84-4419-b132-fa9d9e9c6134"> </a><p class="res-header-id"><b>Generated Narrative: Organization 46037d39-bd84-4419-b132-fa9d9e9c6134</b></p><a name="46037d39-bd84-4419-b132-fa9d9e9c6134"> </a><a name="hc46037d39-bd84-4419-b132-fa9d9e9c6134"> </a><div style="display: inline-block; background-color: #d9e0e7; padding: 6px; margin: 4px; border: 1px solid #8da1b4; border-radius: 5px; line-height: 60%"><p style="margin-bottom: 0px"/><p style="margin-bottom: 0px">Profile: <a href="http://medcomfhir.dk/ig/messaging/4.0.1/StructureDefinition-medcom-messaging-organization.html">MedComMessagingOrganizationversion: null4.0.1)</a></p></div><p><b>identifier</b>: <code>https://www.gs1.org/gln</code>/5790001387419, <code>urn:oid:1.2.208.176.1.1</code>/382871000016004</p><p><b>name</b>: Arden Lægehus</p></div>
        </text>
        <identifier>
          <system value="https://www.gs1.org/gln"/>
          <value value="5790001387419"/>
        </identifier>
        <identifier>
          <system value="urn:oid:1.2.208.176.1.1"/>
          <value value="382871000016004"/>
        </identifier>
        <name value="Arden Lægehus"/>
      </Organization>
    </resource>
  </entry>
  <entry>
    <fullUrl value="https://medcomfhir.dk/ig/carecommunication/Provenance/eb27c278-6dab-4c0f-bed2-8b882e3977c1"/>
    <resource>
      <Provenance>
        <id value="eb27c278-6dab-4c0f-bed2-8b882e3977c1"/>
        <meta>
          <profile value="http://medcomfhir.dk/ig/carecommunication/StructureDefinition/medcom-careCommunication-provenance"/>
        </meta>
        <text>
          <status value="generated"/><div xmlns="http://www.w3.org/1999/xhtml"><a name="Provenance_eb27c278-6dab-4c0f-bed2-8b882e3977c1"> </a><p class="res-header-id"><b>Generated Narrative: Provenance eb27c278-6dab-4c0f-bed2-8b882e3977c1</b></p><a name="eb27c278-6dab-4c0f-bed2-8b882e3977c1"> </a><a name="hceb27c278-6dab-4c0f-bed2-8b882e3977c1"> </a><div style="display: inline-block; background-color: #d9e0e7; padding: 6px; margin: 4px; border: 1px solid #8da1b4; border-radius: 5px; line-height: 60%"><p style="margin-bottom: 0px"/><p style="margin-bottom: 0px">Profile: <a href="http://medcomfhir.dk/ig/carecommunication/5.0.1/StructureDefinition-medcom-careCommunication-provenance.html">MedComCareCommunicationProvenance</a></p></div><p>Provenance for <a href="MessageHeader-f927c454-ef3e-4f60-9640-6727961d6a1f.html">MessageHeader: event[x] = Care Communication Message (MedComMessagingEventCodes#care-communication-message); definition = http://medcomfhir.dk/ig/messagedefinitions/MessageDefinition/MedComCareCommunicationMessageDefinition|5.0</a></p><p>Summary</p><table class="grid"><tr><td>Occurrence</td><td>2024-08-12 11:30:00+0200</td></tr><tr><td>Recorded</td><td>2024-08-12 11:30:00+0200</td></tr><tr><td>Activity</td><td><span title="Codes:{http://medcomfhir.dk/ig/terminology/CodeSystem/medcom-messaging-activityCodes reply-message}">A message has been replied to</span></td></tr></table><p><b>Agents</b></p><table class="grid"><tr><td><b>who</b></td></tr><tr><td><a href="Organization-48038043-9a8c-402e-9828-2bb4f4b74d24.html">Organization Hjerteafdelingen på Herlev og Gentofte hospital</a></td></tr></table></div>
        </text>
        <target>
          <reference value="MessageHeader/f927c454-ef3e-4f60-9640-6727961d6a1f"/>
        </target>
        <occurredDateTime value="2024-08-12T11:30:00+02:00"/>
        <recorded value="2024-08-12T11:30:00+02:00"/>
        <activity>
          <coding>
            <system value="http://medcomfhir.dk/ig/terminology/CodeSystem/medcom-messaging-activityCodes"/>
            <code value="reply-message"/>
          </coding>
        </activity>
        <agent>
          <who>
            <reference value="Organization/48038043-9a8c-402e-9828-2bb4f4b74d24"/>
          </who>
        </agent>
        <entity>
          <role value="source"/>
          <what>
            <identifier>
              <value value="urn:uuid:231b0921-59b4-474c-8ca8-aee33611d140"/>
            </identifier>
          </what>
        </entity>
        <entity>
          <role value="revision"/>
          <what>
            <reference value="MessageHeader/0ebb6284-eb20-45eb-8113-6620d2d08608"/>
          </what>
        </entity>
        <entity>
          <role value="source"/>
          <what>
            <identifier>
              <value value="urn:uuid:ace97a0b-269f-4c67-a9e6-a5b7f20e160e"/>
            </identifier>
          </what>
        </entity>
      </Provenance>
    </resource>
  </entry>
  <entry>
    <fullUrl value="https://medcomfhir.dk/ig/carecommunication/Provenance/fd770a95-af42-4545-886d-729d7edfa23a"/>
    <resource>
      <Provenance>
        <id value="fd770a95-af42-4545-886d-729d7edfa23a"/>
        <meta>
          <profile value="http://medcomfhir.dk/ig/carecommunication/StructureDefinition/medcom-careCommunication-provenance"/>
        </meta>
        <text>
          <status value="generated"/><div xmlns="http://www.w3.org/1999/xhtml"><a name="Provenance_fd770a95-af42-4545-886d-729d7edfa23a"> </a><p class="res-header-id"><b>Generated Narrative: Provenance fd770a95-af42-4545-886d-729d7edfa23a</b></p><a name="fd770a95-af42-4545-886d-729d7edfa23a"> </a><a name="hcfd770a95-af42-4545-886d-729d7edfa23a"> </a><div style="display: inline-block; background-color: #d9e0e7; padding: 6px; margin: 4px; border: 1px solid #8da1b4; border-radius: 5px; line-height: 60%"><p style="margin-bottom: 0px"/><p style="margin-bottom: 0px">Profile: <a href="http://medcomfhir.dk/ig/carecommunication/5.0.1/StructureDefinition-medcom-careCommunication-provenance.html">MedComCareCommunicationProvenance</a></p></div><p>Provenance for <a href="MessageHeader-0ebb6284-eb20-45eb-8113-6620d2d08608.html">MessageHeader: event[x] = Care Communication Message (MedComMessagingEventCodes#care-communication-message); definition = http://medcomfhir.dk/ig/messagedefinitions/MessageDefinition/MedComCareCommunicationMessageDefinition|5.0</a></p><p>Summary</p><table class="grid"><tr><td>Occurrence</td><td>2024-08-11 12:00:00+0200</td></tr><tr><td>Recorded</td><td>2024-08-11 12:00:00+0200</td></tr><tr><td>Activity</td><td><span title="Codes:{http://medcomfhir.dk/ig/terminology/CodeSystem/medcom-messaging-activityCodes new-message}">A new message has been sent</span></td></tr></table><p><b>Agents</b></p><table class="grid"><tr><td><b>who</b></td></tr><tr><td><a href="Organization-46037d39-bd84-4419-b132-fa9d9e9c6134.html">Organization Arden Lægehus</a></td></tr></table></div>
        </text>
        <target>
          <reference value="MessageHeader/0ebb6284-eb20-45eb-8113-6620d2d08608"/>
        </target>
        <occurredDateTime value="2024-08-11T12:00:00+02:00"/>
        <recorded value="2024-08-11T12:00:00+02:00"/>
        <activity>
          <coding>
            <system value="http://medcomfhir.dk/ig/terminology/CodeSystem/medcom-messaging-activityCodes"/>
            <code value="new-message"/>
          </coding>
        </activity>
        <agent>
          <who>
            <reference value="Organization/46037d39-bd84-4419-b132-fa9d9e9c6134"/>
          </who>
        </agent>
        <entity>
          <role value="source"/>
          <what>
            <identifier>
              <value value="urn:uuid:24d01288-ad36-4af2-96a8-fd1432dadee1"/>
            </identifier>
          </what>
        </entity>
      </Provenance>
    </resource>
  </entry>
</Bundle>