<?xml version="1.0" encoding="UTF-8"?>

<Bundle xmlns="http://hl7.org/fhir">
  <id value="R-Tek-D-68f5c0f8-e33e-4302-89b0-cdea52801ec9"/>
  <meta>
    <profile value="http://medcomfhir.dk/ig/carecommunication/StructureDefinition/medcom-careCommunication-message|5.0.1"/>
  </meta>
  <type value="message"/>
  <timestamp value="2024-08-18T12:00:00+02:00"/>
  <entry>
    <fullUrl value="https://medcomfhir.dk/ig/carecommunication/MessageHeader/221b6439-c282-4bf9-9ddc-8c2b8975e809"/>
    <resource>
      <MessageHeader>
        <id value="221b6439-c282-4bf9-9ddc-8c2b8975e809"/>
        <meta>
          <profile value="http://medcomfhir.dk/ig/carecommunication/StructureDefinition/medcom-careCommunication-messageHeader|5.0.1"/>
        </meta>
        <text>
          <status value="generated"/><div xmlns="http://www.w3.org/1999/xhtml"><a name="MessageHeader_221b6439-c282-4bf9-9ddc-8c2b8975e809"> </a><p class="res-header-id"><b>Generated Narrative: MessageHeader 221b6439-c282-4bf9-9ddc-8c2b8975e809</b></p><a name="221b6439-c282-4bf9-9ddc-8c2b8975e809"> </a><a name="hc221b6439-c282-4bf9-9ddc-8c2b8975e809"> </a><div style="display: inline-block; background-color: #d9e0e7; padding: 6px; margin: 4px; border: 1px solid #8da1b4; border-radius: 5px; line-height: 60%"><p style="margin-bottom: 0px"/><p style="margin-bottom: 0px">Profile: <a href="http://medcomfhir.dk/ig/carecommunication/5.0.1/StructureDefinition-medcom-careCommunication-messageHeader.html">MedComCareCommunicationMessageHeaderversion: null5.0.1)</a></p></div><p><b>event</b>: <a href="http://medcomfhir.dk/ig/terminology/2.0.1/CodeSystem-medcom-messaging-eventCodes.html#medcom-messaging-eventCodes-care-communication-message">MedComMessagingEventCodes care-communication-message</a>: Care Communication Message</p><h3>Destinations</h3><table class="grid"><tr><td style="display: none">-</td><td><b>Extension</b></td><td><b>Endpoint</b></td><td><b>Receiver</b></td></tr><tr><td style="display: none">*</td><td/><td><a href="https://sor2.sum.dsdn.dk/#id=330461000016004">https://sor2.sum.dsdn.dk/#id=330461000016004</a></td><td><a href="Organization-5efd9dfc-9fc6-4289-942a-e56c24cb4e05.html">Organization: identifier = https://www.gs1.org/gln#5790001353308,urn:oid:1.2.208.176.1.1#330461000016004</a></td></tr></table><p><b>sender</b>: <a href="Organization-558786fe-d4c0-474d-ac12-5b290619bdbf.html">Organization: identifier = https://www.gs1.org/gln#5790001987244,urn:oid:1.2.208.176.1.1#441211000016000</a></p><h3>Sources</h3><table class="grid"><tr><td style="display: none">-</td><td><b>Endpoint</b></td></tr><tr><td style="display: none">*</td><td><a href="https://sor2.sum.dsdn.dk/#id=441211000016000">https://sor2.sum.dsdn.dk/#id=441211000016000</a></td></tr></table><p><b>focus</b>: <a href="Communication-bde891c9-d099-4af4-9dc2-6b4e60940dfc.html">Communication: identifier = urn:uuid:afe59274-01a4-42b1-8bf4-a7cf907aac53; status = unknown; category = Træning</a></p><p><b>definition</b>: <a href="http://medcomfhir.dk/ig/messagedefinitions/1.0.0/MessageDefinition-MedComCareCommunicationMessageDefinitionV5.0.html">http://medcomfhir.dk/ig/messagedefinitions/MessageDefinition/MedComCareCommunicationMessageDefinition|5.0</a></p></div>
        </text>
        <eventCoding>
          <system value="http://medcomfhir.dk/ig/terminology/CodeSystem/medcom-messaging-eventCodes"/>
          <code value="care-communication-message"/>
        </eventCoding>
        <destination>
          <extension url="http://medcomfhir.dk/ig/messaging/StructureDefinition/medcom-messaging-destinationUseExtension">
            <valueCoding>
              <system value="http://medcomfhir.dk/ig/terminology/CodeSystem/medcom-messaging-destinationUse"/>
              <code value="primary"/>
            </valueCoding>
          </extension>
          <endpoint value="https://sor2.sum.dsdn.dk/#id=330461000016004"/>
          <receiver>
            <reference value="Organization/5efd9dfc-9fc6-4289-942a-e56c24cb4e05"/>
          </receiver>
        </destination>
        <sender>
          <reference value="Organization/558786fe-d4c0-474d-ac12-5b290619bdbf"/>
        </sender>
        <source>
          <endpoint value="https://sor2.sum.dsdn.dk/#id=441211000016000"/>
        </source>
        <focus>
          <reference value="Communication/bde891c9-d099-4af4-9dc2-6b4e60940dfc"/>
        </focus>
        <definition value="http://medcomfhir.dk/ig/messagedefinitions/MessageDefinition/MedComCareCommunicationMessageDefinition|5.0"/>
      </MessageHeader>
    </resource>
  </entry>
  <entry>
    <fullUrl value="https://medcomfhir.dk/ig/carecommunication/Patient/506544db-a78e-4f74-bdcb-95e9951c9fd1"/>
    <resource>
      <Patient>
        <id value="506544db-a78e-4f74-bdcb-95e9951c9fd1"/>
        <meta>
          <profile value="http://medcomfhir.dk/ig/core/StructureDefinition/medcom-core-patient|3.0.1"/>
        </meta>
        <text>
          <status value="generated"/><div xmlns="http://www.w3.org/1999/xhtml"><a name="Patient_506544db-a78e-4f74-bdcb-95e9951c9fd1"> </a><p class="res-header-id"><b>Generated Narrative: Patient 506544db-a78e-4f74-bdcb-95e9951c9fd1</b></p><a name="506544db-a78e-4f74-bdcb-95e9951c9fd1"> </a><a name="hc506544db-a78e-4f74-bdcb-95e9951c9fd1"> </a><div style="display: inline-block; background-color: #d9e0e7; padding: 6px; margin: 4px; border: 1px solid #8da1b4; border-radius: 5px; line-height: 60%"><p style="margin-bottom: 0px"/><p style="margin-bottom: 0px">Profile: <a href="http://medcomfhir.dk/ig/core/3.0.1/StructureDefinition-medcom-core-patient.html">MedComCorePatientversion: null3.0.1)</a></p></div><p style="border: 1px #661aff solid; background-color: #e6e6ff; padding: 10px;">Elmer (official) (no stated gender), DoB Unknown ( urn:oid:1.2.208.176.1.2#2509479989)</p><hr/></div>
        </text>
        <identifier>
          <system value="urn:oid:1.2.208.176.1.2"/>
          <value value="2509479989"/>
        </identifier>
        <name>
          <use value="official"/>
          <family value="Elmer"/>
        </name>
      </Patient>
    </resource>
  </entry>
  <entry>
    <fullUrl value="https://medcomfhir.dk/ig/carecommunication/Communication/bde891c9-d099-4af4-9dc2-6b4e60940dfc"/>
    <resource>
      <Communication>
        <id value="bde891c9-d099-4af4-9dc2-6b4e60940dfc"/>
        <meta>
          <profile value="http://medcomfhir.dk/ig/carecommunication/StructureDefinition/medcom-careCommunication-communication|5.0.1"/>
        </meta>
        <text>
          <status value="extensions"/><div xmlns="http://www.w3.org/1999/xhtml"><a name="Communication_bde891c9-d099-4af4-9dc2-6b4e60940dfc"> </a><p class="res-header-id"><b>Generated Narrative: Communication bde891c9-d099-4af4-9dc2-6b4e60940dfc</b></p><a name="bde891c9-d099-4af4-9dc2-6b4e60940dfc"> </a><a name="hcbde891c9-d099-4af4-9dc2-6b4e60940dfc"> </a><div style="display: inline-block; background-color: #d9e0e7; padding: 6px; margin: 4px; border: 1px solid #8da1b4; border-radius: 5px; line-height: 60%"><p style="margin-bottom: 0px"/><p style="margin-bottom: 0px">Profile: <a href="http://medcomfhir.dk/ig/carecommunication/5.0.1/StructureDefinition-medcom-careCommunication-communication.html">MedComCareCommunicationversion: null5.0.1)</a></p></div><p><b>identifier</b>: urn:uuid:afe59274-01a4-42b1-8bf4-a7cf907aac53</p><p><b>status</b>: Unknown</p><p><b>category</b>: <span title="Codes:{http://medcomfhir.dk/ig/terminology/CodeSystem/medcom-careCommunication-categoryCodes training}">Træning</span></p><p><b>subject</b>: <a href="Patient-506544db-a78e-4f74-bdcb-95e9951c9fd1.html">Elmer (official) (no stated gender), DoB Unknown ( urn:oid:1.2.208.176.1.2#2509479989)</a></p><blockquote><p><b>payload</b></p><p><b>DateTimeExtension</b>: 2024-08-18 12:00:00+0200</p><p><b>IdentifierExtension</b>: urn:uuid:09479fd9-8694-48cf-88b5-c957ee6d561a</p><p><b>PractitionerExtension</b>: <a href="PractitionerRole-147b1985-76d3-428f-bb91-e397017c5607.html">PractitionerRole </a></p><p><b>ContactExtension</b>: ph: 38683868</p><p><b>content</b>: Til rette vedkommende. Som aftalt pr.tlf. dd. vedrørende ovenstående patient: Vi vurderer at funktionsevnen for Spise og for Drikke skal ændres til Moderat.
Hilsen Michael Burns
ingen stillingsbetegnelse</p></blockquote></div>
        </text>
        <identifier>
          <value value="urn:uuid:afe59274-01a4-42b1-8bf4-a7cf907aac53"/>
        </identifier>
        <status value="unknown"/>
        <category>
          <coding>
            <system value="http://medcomfhir.dk/ig/terminology/CodeSystem/medcom-careCommunication-categoryCodes"/>
            <code value="training"/>
          </coding>
        </category>
        <subject>
          <reference value="Patient/506544db-a78e-4f74-bdcb-95e9951c9fd1"/>
        </subject>
        <payload>
          <extension url="http://medcomfhir.dk/ig/core/StructureDefinition/medcom-core-datetime-extension">
            <valueDateTime value="2024-08-18T12:00:00+02:00"/>
          </extension>
          <extension url="http://medcomfhir.dk/ig/core/StructureDefinition/medcom-core-identifier-extension">
            <valueIdentifier>
              <value value="urn:uuid:09479fd9-8694-48cf-88b5-c957ee6d561a"/>
              <assigner>
                <reference value="Organization/558786fe-d4c0-474d-ac12-5b290619bdbf"/>
              </assigner>
            </valueIdentifier>
          </extension>
          <extension url="http://medcomfhir.dk/ig/core/StructureDefinition/medcom-core-practitioner-extension">
            <valueReference>
              <reference value="PractitionerRole/147b1985-76d3-428f-bb91-e397017c5607"/>
            </valueReference>
          </extension>
          <extension url="http://medcomfhir.dk/ig/core/StructureDefinition/medcom-core-contact-extension">
            <valueContactPoint>
              <system value="phone"/>
              <value value="38683868"/>
            </valueContactPoint>
          </extension>
          <contentString value="Til rette vedkommende. Som aftalt pr.tlf. dd. vedrørende ovenstående patient: Vi vurderer at funktionsevnen for Spise og for Drikke skal ændres til Moderat.&#xA;Hilsen Michael Burns&#xA;ingen stillingsbetegnelse"/>
        </payload>
      </Communication>
    </resource>
  </entry>
  <entry>
    <fullUrl value="https://medcomfhir.dk/ig/carecommunication/PractitionerRole/147b1985-76d3-428f-bb91-e397017c5607"/>
    <resource>
      <PractitionerRole>
        <id value="147b1985-76d3-428f-bb91-e397017c5607"/>
        <meta>
          <profile value="http://medcomfhir.dk/ig/core/StructureDefinition/medcom-core-practitionerrole|3.0.1"/>
        </meta>
        <text>
          <status value="generated"/><div xmlns="http://www.w3.org/1999/xhtml"><a name="PractitionerRole_147b1985-76d3-428f-bb91-e397017c5607"> </a><p class="res-header-id"><b>Generated Narrative: PractitionerRole 147b1985-76d3-428f-bb91-e397017c5607</b></p><a name="147b1985-76d3-428f-bb91-e397017c5607"> </a><a name="hc147b1985-76d3-428f-bb91-e397017c5607"> </a><div style="display: inline-block; background-color: #d9e0e7; padding: 6px; margin: 4px; border: 1px solid #8da1b4; border-radius: 5px; line-height: 60%"><p style="margin-bottom: 0px"/><p style="margin-bottom: 0px">Profile: <a href="http://medcomfhir.dk/ig/core/3.0.1/StructureDefinition-medcom-core-practitionerrole.html">MedComCorePractitionerRoleversion: null3.0.1)</a></p></div><p><b>practitioner</b>: <a href="Practitioner-48dc7a52-19f5-42c6-ba7c-48ebed7c6cc9.html">Practitioner Michael Burns </a></p><p><b>code</b>: <span title="Codes:">jordarbejder</span></p></div>
        </text>
        <practitioner>
          <reference value="Practitioner/48dc7a52-19f5-42c6-ba7c-48ebed7c6cc9"/>
        </practitioner>
        <code>
          <text value="jordarbejder"/>
        </code>
      </PractitionerRole>
    </resource>
  </entry>
  <entry>
    <fullUrl value="https://medcomfhir.dk/ig/carecommunication/Practitioner/48dc7a52-19f5-42c6-ba7c-48ebed7c6cc9"/>
    <resource>
      <Practitioner>
        <id value="48dc7a52-19f5-42c6-ba7c-48ebed7c6cc9"/>
        <meta>
          <profile value="http://medcomfhir.dk/ig/core/StructureDefinition/medcom-core-practitioner|3.0.1"/>
        </meta>
        <text>
          <status value="generated"/><div xmlns="http://www.w3.org/1999/xhtml"><a name="Practitioner_48dc7a52-19f5-42c6-ba7c-48ebed7c6cc9"> </a><p class="res-header-id"><b>Generated Narrative: Practitioner 48dc7a52-19f5-42c6-ba7c-48ebed7c6cc9</b></p><a name="48dc7a52-19f5-42c6-ba7c-48ebed7c6cc9"> </a><a name="hc48dc7a52-19f5-42c6-ba7c-48ebed7c6cc9"> </a><div style="display: inline-block; background-color: #d9e0e7; padding: 6px; margin: 4px; border: 1px solid #8da1b4; border-radius: 5px; line-height: 60%"><p style="margin-bottom: 0px"/><p style="margin-bottom: 0px">Profile: <a href="http://medcomfhir.dk/ig/core/3.0.1/StructureDefinition-medcom-core-practitioner.html">MedComCorePractitionerversion: null3.0.1)</a></p></div><p><b>name</b>: Michael Burns </p></div>
        </text>
        <name>
          <family value="Burns"/>
          <given value="Michael"/>
        </name>
      </Practitioner>
    </resource>
  </entry>
  <entry>
    <fullUrl value="https://medcomfhir.dk/ig/carecommunication/Organization/558786fe-d4c0-474d-ac12-5b290619bdbf"/>
    <resource>
      <Organization>
        <id value="558786fe-d4c0-474d-ac12-5b290619bdbf"/>
        <meta>
          <profile value="http://medcomfhir.dk/ig/messaging/StructureDefinition/medcom-messaging-organization|4.0.1"/>
        </meta>
        <text>
          <status value="generated"/><div xmlns="http://www.w3.org/1999/xhtml"><a name="Organization_558786fe-d4c0-474d-ac12-5b290619bdbf"> </a><p class="res-header-id"><b>Generated Narrative: Organization 558786fe-d4c0-474d-ac12-5b290619bdbf</b></p><a name="558786fe-d4c0-474d-ac12-5b290619bdbf"> </a><a name="hc558786fe-d4c0-474d-ac12-5b290619bdbf"> </a><div style="display: inline-block; background-color: #d9e0e7; padding: 6px; margin: 4px; border: 1px solid #8da1b4; border-radius: 5px; line-height: 60%"><p style="margin-bottom: 0px"/><p style="margin-bottom: 0px">Profile: <a href="http://medcomfhir.dk/ig/messaging/4.0.1/StructureDefinition-medcom-messaging-organization.html">MedComMessagingOrganizationversion: null4.0.1)</a></p></div><p><b>identifier</b>: <code>https://www.gs1.org/gln</code>/5790001987244, <code>urn:oid:1.2.208.176.1.1</code>/441211000016000</p></div>
        </text>
        <identifier>
          <system value="https://www.gs1.org/gln"/>
          <value value="5790001987244"/>
        </identifier>
        <identifier>
          <system value="urn:oid:1.2.208.176.1.1"/>
          <value value="441211000016000"/>
        </identifier>
      </Organization>
    </resource>
  </entry>
  <entry>
    <fullUrl value="https://medcomfhir.dk/ig/carecommunication/Organization/5efd9dfc-9fc6-4289-942a-e56c24cb4e05"/>
    <resource>
      <Organization>
        <id value="5efd9dfc-9fc6-4289-942a-e56c24cb4e05"/>
        <meta>
          <profile value="http://medcomfhir.dk/ig/messaging/StructureDefinition/medcom-messaging-organization|4.0.1"/>
        </meta>
        <text>
          <status value="generated"/><div xmlns="http://www.w3.org/1999/xhtml"><a name="Organization_5efd9dfc-9fc6-4289-942a-e56c24cb4e05"> </a><p class="res-header-id"><b>Generated Narrative: Organization 5efd9dfc-9fc6-4289-942a-e56c24cb4e05</b></p><a name="5efd9dfc-9fc6-4289-942a-e56c24cb4e05"> </a><a name="hc5efd9dfc-9fc6-4289-942a-e56c24cb4e05"> </a><div style="display: inline-block; background-color: #d9e0e7; padding: 6px; margin: 4px; border: 1px solid #8da1b4; border-radius: 5px; line-height: 60%"><p style="margin-bottom: 0px"/><p style="margin-bottom: 0px">Profile: <a href="http://medcomfhir.dk/ig/messaging/4.0.1/StructureDefinition-medcom-messaging-organization.html">MedComMessagingOrganizationversion: null4.0.1)</a></p></div><p><b>identifier</b>: <code>https://www.gs1.org/gln</code>/5790001353308, <code>urn:oid:1.2.208.176.1.1</code>/330461000016004</p></div>
        </text>
        <identifier>
          <system value="https://www.gs1.org/gln"/>
          <value value="5790001353308"/>
        </identifier>
        <identifier>
          <system value="urn:oid:1.2.208.176.1.1"/>
          <value value="330461000016004"/>
        </identifier>
      </Organization>
    </resource>
  </entry>
  <entry>
    <fullUrl value="https://medcomfhir.dk/ig/carecommunication/Provenance/0fc624e5-3455-4272-bf97-e018817156b5"/>
    <resource>
      <Provenance>
        <id value="0fc624e5-3455-4272-bf97-e018817156b5"/>
        <meta>
          <profile value="http://medcomfhir.dk/ig/carecommunication/StructureDefinition/medcom-careCommunication-provenance"/>
        </meta>
        <text>
          <status value="generated"/><div xmlns="http://www.w3.org/1999/xhtml"><a name="Provenance_0fc624e5-3455-4272-bf97-e018817156b5"> </a><p class="res-header-id"><b>Generated Narrative: Provenance 0fc624e5-3455-4272-bf97-e018817156b5</b></p><a name="0fc624e5-3455-4272-bf97-e018817156b5"> </a><a name="hc0fc624e5-3455-4272-bf97-e018817156b5"> </a><div style="display: inline-block; background-color: #d9e0e7; padding: 6px; margin: 4px; border: 1px solid #8da1b4; border-radius: 5px; line-height: 60%"><p style="margin-bottom: 0px"/><p style="margin-bottom: 0px">Profile: <a href="http://medcomfhir.dk/ig/carecommunication/5.0.1/StructureDefinition-medcom-careCommunication-provenance.html">MedComCareCommunicationProvenance</a></p></div><p>Provenance for <a href="MessageHeader-221b6439-c282-4bf9-9ddc-8c2b8975e809.html">MessageHeader: event[x] = Care Communication Message (MedComMessagingEventCodes#care-communication-message); definition = http://medcomfhir.dk/ig/messagedefinitions/MessageDefinition/MedComCareCommunicationMessageDefinition|5.0</a></p><p>Summary</p><table class="grid"><tr><td>Occurrence</td><td>2024-08-18 12:00:00+0200</td></tr><tr><td>Recorded</td><td>2024-08-18 12:00:00+0200</td></tr><tr><td>Activity</td><td><span title="Codes:{http://medcomfhir.dk/ig/terminology/CodeSystem/medcom-messaging-activityCodes new-message}">A new message has been sent</span></td></tr></table><p><b>Agents</b></p><table class="grid"><tr><td><b>who</b></td></tr><tr><td><a href="Organization-558786fe-d4c0-474d-ac12-5b290619bdbf.html">Organization: identifier = https://www.gs1.org/gln#5790001987244,urn:oid:1.2.208.176.1.1#441211000016000</a></td></tr></table></div>
        </text>
        <target>
          <reference value="MessageHeader/221b6439-c282-4bf9-9ddc-8c2b8975e809"/>
        </target>
        <occurredDateTime value="2024-08-18T12:00:00+02:00"/>
        <recorded value="2024-08-18T12:00:00+02:00"/>
        <activity>
          <coding>
            <system value="http://medcomfhir.dk/ig/terminology/CodeSystem/medcom-messaging-activityCodes"/>
            <code value="new-message"/>
          </coding>
        </activity>
        <agent>
          <who>
            <reference value="Organization/558786fe-d4c0-474d-ac12-5b290619bdbf"/>
          </who>
        </agent>
        <entity>
          <role value="source"/>
          <what>
            <identifier>
              <value value="urn:uuid:09479fd9-8694-48cf-88b5-c957ee6d561a"/>
            </identifier>
          </what>
        </entity>
      </Provenance>
    </resource>
  </entry>
</Bundle>