<?xml version="1.0" encoding="UTF-8"?>

<Bundle xmlns="http://hl7.org/fhir">
  <id value="R-Tek-J-dublicate-7283eae8-0427-4bb0-8486-06b4febd416c"/>
  <meta>
    <profile value="http://medcomfhir.dk/ig/carecommunication/StructureDefinition/medcom-careCommunication-message"/>
  </meta>
  <type value="message"/>
  <timestamp value="2024-08-25T15:20:00+02:00"/>
  <entry>
    <fullUrl value="https://medcomfhir.dk/ig/carecommunication/MessageHeader/7784a5ff-0293-4a54-aaf1-974714807fb3"/>
    <resource>
      <MessageHeader>
        <id value="7784a5ff-0293-4a54-aaf1-974714807fb3"/>
        <meta>
          <profile value="http://medcomfhir.dk/ig/carecommunication/StructureDefinition/medcom-careCommunication-messageHeader"/>
        </meta>
        <text>
          <status value="generated"/><div xmlns="http://www.w3.org/1999/xhtml"><a name="MessageHeader_7784a5ff-0293-4a54-aaf1-974714807fb3"> </a><p class="res-header-id"><b>Generated Narrative: MessageHeader 7784a5ff-0293-4a54-aaf1-974714807fb3</b></p><a name="7784a5ff-0293-4a54-aaf1-974714807fb3"> </a><a name="hc7784a5ff-0293-4a54-aaf1-974714807fb3"> </a><div style="display: inline-block; background-color: #d9e0e7; padding: 6px; margin: 4px; border: 1px solid #8da1b4; border-radius: 5px; line-height: 60%"><p style="margin-bottom: 0px"/><p style="margin-bottom: 0px">Profile: <a href="http://medcomfhir.dk/ig/carecommunication/5.0.0/StructureDefinition-medcom-careCommunication-messageHeader.html">MedComCareCommunicationMessageHeader</a></p></div><p><b>event</b>: <a href="http://medcomfhir.dk/ig/terminology/1.8.1/CodeSystem-medcom-messaging-eventCodes.html#medcom-messaging-eventCodes-care-communication-message">MedComMessagingEventCodes care-communication-message</a>: Care Communication Message</p><h3>Destinations</h3><table class="grid"><tr><td style="display: none">-</td><td><b>Extension</b></td><td><b>Endpoint</b></td><td><b>Receiver</b></td></tr><tr><td style="display: none">*</td><td/><td><a href="https://sor2.sum.dsdn.dk/#id=330461000016004">https://sor2.sum.dsdn.dk/#id=330461000016004</a></td><td><a href="Organization-7add7867-7f93-421b-9b93-41597c3433cb.html">Organization Sundhedsplejen, Aabenraa kommune</a></td></tr></table><p><b>sender</b>: <a href="Organization-2aa3877e-d446-4c24-b497-399baaba894c.html">Organization Klinik for Ældresygdomme, AUH, Skejby</a></p><h3>Sources</h3><table class="grid"><tr><td style="display: none">-</td><td><b>Endpoint</b></td></tr><tr><td style="display: none">*</td><td><a href="https://sor2.sum.dsdn.dk/#id=441211000016000">https://sor2.sum.dsdn.dk/#id=441211000016000</a></td></tr></table><p><b>focus</b>: <a href="Communication-5cf35f62-e56a-4eb1-ada4-1abb6ea0dda0.html">Communication: identifier = urn:uuid:4098a5ef-3e35-455c-b6cb-01533423593b; status = unknown; category = Ambulant</a></p><p><b>definition</b>: <a href="http://medcomfhir.dk/ig/messagedefinitions/1.0.0/MessageDefinition-MedComCareCommunicationMessageDefinitionV5.0.html">http://medcomfhir.dk/ig/messagedefinitions/MessageDefinition/MedComCareCommunicationMessageDefinition|5.0</a></p></div>
        </text>
        <eventCoding>
          <system value="http://medcomfhir.dk/ig/terminology/CodeSystem/medcom-messaging-eventCodes"/>
          <code value="care-communication-message"/>
        </eventCoding>
        <destination>
          <extension url="http://medcomfhir.dk/ig/messaging/StructureDefinition/medcom-messaging-destinationUseExtension">
            <valueCoding>
              <system value="http://medcomfhir.dk/ig/terminology/CodeSystem/medcom-messaging-destinationUse"/>
              <code value="primary"/>
            </valueCoding>
          </extension>
          <endpoint value="https://sor2.sum.dsdn.dk/#id=330461000016004"/>
          <receiver>
            <reference value="Organization/7add7867-7f93-421b-9b93-41597c3433cb"/>
          </receiver>
        </destination>
        <sender>
          <reference value="Organization/2aa3877e-d446-4c24-b497-399baaba894c"/>
        </sender>
        <source>
          <endpoint value="https://sor2.sum.dsdn.dk/#id=441211000016000"/>
        </source>
        <focus>
          <reference value="Communication/5cf35f62-e56a-4eb1-ada4-1abb6ea0dda0"/>
        </focus>
        <definition value="http://medcomfhir.dk/ig/messagedefinitions/MessageDefinition/MedComCareCommunicationMessageDefinition|5.0"/>
      </MessageHeader>
    </resource>
  </entry>
  <entry>
    <fullUrl value="https://medcomfhir.dk/ig/carecommunication/Patient/5986ec2e-05a4-4e30-8d2f-f09fb09eb832"/>
    <resource>
      <Patient>
        <id value="5986ec2e-05a4-4e30-8d2f-f09fb09eb832"/>
        <meta>
          <profile value="http://medcomfhir.dk/ig/core/StructureDefinition/medcom-core-patient"/>
        </meta>
        <text>
          <status value="generated"/><div xmlns="http://www.w3.org/1999/xhtml"><a name="Patient_5986ec2e-05a4-4e30-8d2f-f09fb09eb832"> </a><p class="res-header-id"><b>Generated Narrative: Patient 5986ec2e-05a4-4e30-8d2f-f09fb09eb832</b></p><a name="5986ec2e-05a4-4e30-8d2f-f09fb09eb832"> </a><a name="hc5986ec2e-05a4-4e30-8d2f-f09fb09eb832"> </a><div style="display: inline-block; background-color: #d9e0e7; padding: 6px; margin: 4px; border: 1px solid #8da1b4; border-radius: 5px; line-height: 60%"><p style="margin-bottom: 0px"/><p style="margin-bottom: 0px">Profile: <a href="http://medcomfhir.dk/ig/core/3.0.0/StructureDefinition-medcom-core-patient.html">MedComCorePatient</a></p></div><p style="border: 1px #661aff solid; background-color: #e6e6ff; padding: 10px;">Bruno Test Elmer (official) (no stated gender), DoB Unknown ( urn:oid:1.2.208.176.1.2#2509479989)</p><hr/></div>
        </text>
        <identifier>
          <system value="urn:oid:1.2.208.176.1.2"/>
          <value value="2509479989"/>
        </identifier>
        <name>
          <use value="official"/>
          <family value="Elmer"/>
          <given value="Bruno"/>
          <given value="Test"/>
        </name>
      </Patient>
    </resource>
  </entry>
  <entry>
    <fullUrl value="https://medcomfhir.dk/ig/carecommunication/Communication/5cf35f62-e56a-4eb1-ada4-1abb6ea0dda0"/>
    <resource>
      <Communication>
        <id value="5cf35f62-e56a-4eb1-ada4-1abb6ea0dda0"/>
        <meta>
          <profile value="http://medcomfhir.dk/ig/carecommunication/StructureDefinition/medcom-careCommunication-communication"/>
        </meta>
        <text>
          <status value="extensions"/><div xmlns="http://www.w3.org/1999/xhtml"><a name="Communication_5cf35f62-e56a-4eb1-ada4-1abb6ea0dda0"> </a><p class="res-header-id"><b>Generated Narrative: Communication 5cf35f62-e56a-4eb1-ada4-1abb6ea0dda0</b></p><a name="5cf35f62-e56a-4eb1-ada4-1abb6ea0dda0"> </a><a name="hc5cf35f62-e56a-4eb1-ada4-1abb6ea0dda0"> </a><div style="display: inline-block; background-color: #d9e0e7; padding: 6px; margin: 4px; border: 1px solid #8da1b4; border-radius: 5px; line-height: 60%"><p style="margin-bottom: 0px"/><p style="margin-bottom: 0px">Profile: <a href="http://medcomfhir.dk/ig/carecommunication/5.0.0/StructureDefinition-medcom-careCommunication-communication.html">MedComCareCommunication</a></p></div><p><b>identifier</b>: urn:uuid:4098a5ef-3e35-455c-b6cb-01533423593b</p><p><b>status</b>: Unknown</p><p><b>category</b>: <span title="Codes:{http://medcomfhir.dk/ig/terminology/CodeSystem/medcom-careCommunication-categoryCodes outpatient}">Ambulant</span></p><p><b>subject</b>: <a href="Patient-5986ec2e-05a4-4e30-8d2f-f09fb09eb832.html">Bruno Test Elmer (official) (no stated gender), DoB Unknown ( urn:oid:1.2.208.176.1.2#2509479989)</a></p><blockquote><p><b>payload</b></p><p><b>DateTimeExtension</b>: 2024-08-25 15:20:00+0200</p><p><b>IdentifierExtension</b>: urn:uuid:da11e1b2-a1c6-40c4-8412-e5b93a52831e</p><p><b>PractitionerExtension</b>: <a href="PractitionerRole-dfd68df4-1cd1-45a8-a5df-4cc9e78ea0ec.html">PractitionerRole Sygehuslæge</a></p><p><b>ContactExtension</b>: <a href="tel:+4512345789">+4512345789</a></p><p><b>content</b>: Til rette vedkommende. Vi ønsker information om de seneste undersøgelser udført på Bruno.
På forhånd tak.
Hilsen Henrik Elderly
Sygehuslæge</p></blockquote></div>
        </text>
        <identifier>
          <value value="urn:uuid:4098a5ef-3e35-455c-b6cb-01533423593b"/>
        </identifier>
        <status value="unknown"/>
        <category>
          <coding>
            <system value="http://medcomfhir.dk/ig/terminology/CodeSystem/medcom-careCommunication-categoryCodes"/>
            <code value="outpatient"/>
          </coding>
        </category>
        <subject>
          <reference value="Patient/5986ec2e-05a4-4e30-8d2f-f09fb09eb832"/>
        </subject>
        <payload>
          <extension url="http://medcomfhir.dk/ig/core/StructureDefinition/medcom-core-datetime-extension">
            <valueDateTime value="2024-08-25T15:20:00+02:00"/>
          </extension>
          <extension url="http://medcomfhir.dk/ig/core/StructureDefinition/medcom-core-identifier-extension">
            <valueIdentifier>
              <value value="urn:uuid:da11e1b2-a1c6-40c4-8412-e5b93a52831e"/>
              <assigner>
                <reference value="Organization/2aa3877e-d446-4c24-b497-399baaba894c"/>
              </assigner>
            </valueIdentifier>
          </extension>
          <extension url="http://medcomfhir.dk/ig/core/StructureDefinition/medcom-core-practitioner-extension">
            <valueReference>
              <reference value="PractitionerRole/dfd68df4-1cd1-45a8-a5df-4cc9e78ea0ec"/>
            </valueReference>
          </extension>
          <extension url="http://medcomfhir.dk/ig/core/StructureDefinition/medcom-core-contact-extension">
            <valueContactPoint>
              <system value="phone"/>
              <value value="+4512345789"/>
            </valueContactPoint>
          </extension>
          <contentString value="Til rette vedkommende. Vi ønsker information om de seneste undersøgelser udført på Bruno.&#xA;På forhånd tak.&#xA;Hilsen Henrik Elderly&#xA;Sygehuslæge"/>
        </payload>
      </Communication>
    </resource>
  </entry>
  <entry>
    <fullUrl value="https://medcomfhir.dk/ig/carecommunication/PractitionerRole/dfd68df4-1cd1-45a8-a5df-4cc9e78ea0ec"/>
    <resource>
      <PractitionerRole>
        <id value="dfd68df4-1cd1-45a8-a5df-4cc9e78ea0ec"/>
        <meta>
          <profile value="http://medcomfhir.dk/ig/core/StructureDefinition/medcom-core-practitionerrole"/>
        </meta>
        <text>
          <status value="generated"/><div xmlns="http://www.w3.org/1999/xhtml"><a name="PractitionerRole_dfd68df4-1cd1-45a8-a5df-4cc9e78ea0ec"> </a><p class="res-header-id"><b>Generated Narrative: PractitionerRole dfd68df4-1cd1-45a8-a5df-4cc9e78ea0ec</b></p><a name="dfd68df4-1cd1-45a8-a5df-4cc9e78ea0ec"> </a><a name="hcdfd68df4-1cd1-45a8-a5df-4cc9e78ea0ec"> </a><div style="display: inline-block; background-color: #d9e0e7; padding: 6px; margin: 4px; border: 1px solid #8da1b4; border-radius: 5px; line-height: 60%"><p style="margin-bottom: 0px"/><p style="margin-bottom: 0px">Profile: <a href="http://medcomfhir.dk/ig/core/3.0.0/StructureDefinition-medcom-core-practitionerrole.html">MedComCorePractitionerRole</a></p></div><p><b>practitioner</b>: <a href="Practitioner-881a94fd-8fc5-4d60-be50-8dac03c63fb7.html">Practitioner Henrik Elderly </a></p><p><b>code</b>: <span title="Codes:{http://medcomfhir.dk/ig/terminology/CodeSystem/medcom-core-PractitionerRolesSKSadministrativ sygehuslaege}">Sygehuslæge</span></p></div>
        </text>
        <practitioner>
          <reference value="Practitioner/881a94fd-8fc5-4d60-be50-8dac03c63fb7"/>
        </practitioner>
        <code>
          <coding>
            <system value="http://medcomfhir.dk/ig/terminology/CodeSystem/medcom-core-PractitionerRolesSKSadministrativ"/>
            <code value="sygehuslaege"/>
          </coding>
        </code>
      </PractitionerRole>
    </resource>
  </entry>
  <entry>
    <fullUrl value="https://medcomfhir.dk/ig/carecommunication/Practitioner/881a94fd-8fc5-4d60-be50-8dac03c63fb7"/>
    <resource>
      <Practitioner>
        <id value="881a94fd-8fc5-4d60-be50-8dac03c63fb7"/>
        <meta>
          <profile value="http://medcomfhir.dk/ig/core/StructureDefinition/medcom-core-practitioner"/>
        </meta>
        <text>
          <status value="generated"/><div xmlns="http://www.w3.org/1999/xhtml"><a name="Practitioner_881a94fd-8fc5-4d60-be50-8dac03c63fb7"> </a><p class="res-header-id"><b>Generated Narrative: Practitioner 881a94fd-8fc5-4d60-be50-8dac03c63fb7</b></p><a name="881a94fd-8fc5-4d60-be50-8dac03c63fb7"> </a><a name="hc881a94fd-8fc5-4d60-be50-8dac03c63fb7"> </a><div style="display: inline-block; background-color: #d9e0e7; padding: 6px; margin: 4px; border: 1px solid #8da1b4; border-radius: 5px; line-height: 60%"><p style="margin-bottom: 0px"/><p style="margin-bottom: 0px">Profile: <a href="http://medcomfhir.dk/ig/core/3.0.0/StructureDefinition-medcom-core-practitioner.html">MedComCorePractitioner</a></p></div><p><b>name</b>: Henrik Elderly </p></div>
        </text>
        <name>
          <family value="Elderly"/>
          <given value="Henrik"/>
        </name>
      </Practitioner>
    </resource>
  </entry>
  <entry>
    <fullUrl value="https://medcomfhir.dk/ig/carecommunication/Organization/2aa3877e-d446-4c24-b497-399baaba894c"/>
    <resource>
      <Organization>
        <id value="2aa3877e-d446-4c24-b497-399baaba894c"/>
        <meta>
          <profile value="http://medcomfhir.dk/ig/messaging/StructureDefinition/medcom-messaging-organization"/>
        </meta>
        <text>
          <status value="generated"/><div xmlns="http://www.w3.org/1999/xhtml"><a name="Organization_2aa3877e-d446-4c24-b497-399baaba894c"> </a><p class="res-header-id"><b>Generated Narrative: Organization 2aa3877e-d446-4c24-b497-399baaba894c</b></p><a name="2aa3877e-d446-4c24-b497-399baaba894c"> </a><a name="hc2aa3877e-d446-4c24-b497-399baaba894c"> </a><div style="display: inline-block; background-color: #d9e0e7; padding: 6px; margin: 4px; border: 1px solid #8da1b4; border-radius: 5px; line-height: 60%"><p style="margin-bottom: 0px"/><p style="margin-bottom: 0px">Profile: <a href="http://medcomfhir.dk/ig/messaging/4.0.0/StructureDefinition-medcom-messaging-organization.html">MedComMessagingOrganization</a></p></div><p><b>identifier</b>: <code>https://www.gs1.org/gln</code>/5790001987244, <code>urn:oid:1.2.208.176.1.1</code>/441211000016000</p><p><b>name</b>: Klinik for Ældresygdomme, AUH, Skejby</p></div>
        </text>
        <identifier>
          <system value="https://www.gs1.org/gln"/>
          <value value="5790001987244"/>
        </identifier>
        <identifier>
          <system value="urn:oid:1.2.208.176.1.1"/>
          <value value="441211000016000"/>
        </identifier>
        <name value="Klinik for Ældresygdomme, AUH, Skejby"/>
      </Organization>
    </resource>
  </entry>
  <entry>
    <fullUrl value="https://medcomfhir.dk/ig/carecommunication/Organization/7add7867-7f93-421b-9b93-41597c3433cb"/>
    <resource>
      <Organization>
        <id value="7add7867-7f93-421b-9b93-41597c3433cb"/>
        <meta>
          <profile value="http://medcomfhir.dk/ig/messaging/StructureDefinition/medcom-messaging-organization"/>
        </meta>
        <text>
          <status value="generated"/><div xmlns="http://www.w3.org/1999/xhtml"><a name="Organization_7add7867-7f93-421b-9b93-41597c3433cb"> </a><p class="res-header-id"><b>Generated Narrative: Organization 7add7867-7f93-421b-9b93-41597c3433cb</b></p><a name="7add7867-7f93-421b-9b93-41597c3433cb"> </a><a name="hc7add7867-7f93-421b-9b93-41597c3433cb"> </a><div style="display: inline-block; background-color: #d9e0e7; padding: 6px; margin: 4px; border: 1px solid #8da1b4; border-radius: 5px; line-height: 60%"><p style="margin-bottom: 0px"/><p style="margin-bottom: 0px">Profile: <a href="http://medcomfhir.dk/ig/messaging/4.0.0/StructureDefinition-medcom-messaging-organization.html">MedComMessagingOrganization</a></p></div><p><b>identifier</b>: <code>https://www.gs1.org/gln</code>/5790001353308, <code>urn:oid:1.2.208.176.1.1</code>/330461000016004</p><p><b>name</b>: Sundhedsplejen, Aabenraa kommune</p></div>
        </text>
        <identifier>
          <system value="https://www.gs1.org/gln"/>
          <value value="5790001353308"/>
        </identifier>
        <identifier>
          <system value="urn:oid:1.2.208.176.1.1"/>
          <value value="330461000016004"/>
        </identifier>
        <name value="Sundhedsplejen, Aabenraa kommune"/>
      </Organization>
    </resource>
  </entry>
  <entry>
    <fullUrl value="https://medcomfhir.dk/ig/carecommunication/Provenance/0ba6b512-88a0-480a-8e79-34faef0ff447"/>
    <resource>
      <Provenance>
        <id value="0ba6b512-88a0-480a-8e79-34faef0ff447"/>
        <meta>
          <profile value="http://medcomfhir.dk/ig/carecommunication/StructureDefinition/medcom-careCommunication-provenance"/>
        </meta>
        <text>
          <status value="generated"/><div xmlns="http://www.w3.org/1999/xhtml"><a name="Provenance_0ba6b512-88a0-480a-8e79-34faef0ff447"> </a><p class="res-header-id"><b>Generated Narrative: Provenance 0ba6b512-88a0-480a-8e79-34faef0ff447</b></p><a name="0ba6b512-88a0-480a-8e79-34faef0ff447"> </a><a name="hc0ba6b512-88a0-480a-8e79-34faef0ff447"> </a><div style="display: inline-block; background-color: #d9e0e7; padding: 6px; margin: 4px; border: 1px solid #8da1b4; border-radius: 5px; line-height: 60%"><p style="margin-bottom: 0px"/><p style="margin-bottom: 0px">Profile: <a href="http://medcomfhir.dk/ig/carecommunication/5.0.0/StructureDefinition-medcom-careCommunication-provenance.html">MedComCareCommunicationProvenance</a></p></div><p>Provenance for <a href="MessageHeader-7784a5ff-0293-4a54-aaf1-974714807fb3.html">MessageHeader: event[x] = Care Communication Message (MedComMessagingEventCodes#care-communication-message); definition = http://medcomfhir.dk/ig/messagedefinitions/MessageDefinition/MedComCareCommunicationMessageDefinition|5.0</a></p><p>Summary</p><table class="grid"><tr><td>Occurrence</td><td>2024-08-25 15:20:00+0200</td></tr><tr><td>Recorded</td><td>2024-08-25 15:20:00+0200</td></tr><tr><td>Activity</td><td><span title="Codes:{http://medcomfhir.dk/ig/terminology/CodeSystem/medcom-messaging-activityCodes new-message}">A new message has been sent</span></td></tr></table><p><b>Agents</b></p><table class="grid"><tr><td><b>who</b></td></tr><tr><td><a href="Organization-2aa3877e-d446-4c24-b497-399baaba894c.html">Organization Klinik for Ældresygdomme, AUH, Skejby</a></td></tr></table></div>
        </text>
        <target>
          <reference value="MessageHeader/7784a5ff-0293-4a54-aaf1-974714807fb3"/>
        </target>
        <occurredDateTime value="2024-08-25T15:20:00+02:00"/>
        <recorded value="2024-08-25T15:20:00+02:00"/>
        <activity>
          <coding>
            <system value="http://medcomfhir.dk/ig/terminology/CodeSystem/medcom-messaging-activityCodes"/>
            <code value="new-message"/>
          </coding>
        </activity>
        <agent>
          <who>
            <reference value="Organization/2aa3877e-d446-4c24-b497-399baaba894c"/>
          </who>
        </agent>
        <entity>
          <role value="source"/>
          <what>
            <identifier>
              <value value="urn:uuid:da11e1b2-a1c6-40c4-8412-e5b93a52831e"/>
            </identifier>
          </what>
        </entity>
      </Provenance>
    </resource>
  </entry>
</Bundle>