{
  "resourceType" : "Bundle",
  "id" : "R-Tek-O-invalid-3d1149cd-d3e3-421a-ae31-4860decb4272",
  "meta" : {
    "profile" : ["http://medcomfhir.dk/ig/carecommunication/StructureDefinition/medcom-careCommunication-message"]
  },
  "type" : "message",
  "timestamp" : "2024-11-10T15:20:00+01:00",
  "entry" : [{
    "fullUrl" : "https://medcomfhir.dk/ig/carecommunication/MessageHeader/5c2cdf2c-bcbd-4c15-adce-6b862a84249c",
    "resource" : {
      "resourceType" : "MessageHeader",
      "id" : "5c2cdf2c-bcbd-4c15-adce-6b862a84249c",
      "meta" : {
        "profile" : ["http://medcomfhir.dk/ig/carecommunication/StructureDefinition/medcom-careCommunication-messageHeader"]
      },
      "text" : {
        "status" : "generated",
        "div" : "<div xmlns=\"http://www.w3.org/1999/xhtml\"><a name=\"MessageHeader_5c2cdf2c-bcbd-4c15-adce-6b862a84249c\"> </a><p class=\"res-header-id\"><b>Generated Narrative: MessageHeader 5c2cdf2c-bcbd-4c15-adce-6b862a84249c</b></p><a name=\"5c2cdf2c-bcbd-4c15-adce-6b862a84249c\"> </a><a name=\"hc5c2cdf2c-bcbd-4c15-adce-6b862a84249c\"> </a><div style=\"display: inline-block; background-color: #d9e0e7; padding: 6px; margin: 4px; border: 1px solid #8da1b4; border-radius: 5px; line-height: 60%\"><p style=\"margin-bottom: 0px\"/><p style=\"margin-bottom: 0px\">Profile: <a href=\"http://medcomfhir.dk/ig/carecommunication/5.0.0/StructureDefinition-medcom-careCommunication-messageHeader.html\">MedComCareCommunicationMessageHeader</a></p></div><p><b>event</b>: <a href=\"http://medcomfhir.dk/ig/terminology/1.8.1/CodeSystem-medcom-messaging-eventCodes.html#medcom-messaging-eventCodes-care-communication-message\">MedComMessagingEventCodes care-communication-message</a>: Care Communication Message</p><h3>Destinations</h3><table class=\"grid\"><tr><td style=\"display: none\">-</td><td><b>Extension</b></td><td><b>Endpoint</b></td><td><b>Receiver</b></td></tr><tr><td style=\"display: none\">*</td><td/><td><a href=\"https://sor2.sum.dsdn.dk/#id=330461000016004\">https://sor2.sum.dsdn.dk/#id=330461000016004</a></td><td><a href=\"Organization-6e7761cb-2dc9-48c7-8fd4-b49d46dd9c05.html\">Organization Sundhedsplejen, Aabenraa kommune</a></td></tr></table><p><b>sender</b>: <a href=\"Organization-409b87d3-398e-44cb-9246-35b47ff75cc4.html\">Organization Klinik for Ældresygdomme, AUH, Skejby</a></p><h3>Sources</h3><table class=\"grid\"><tr><td style=\"display: none\">-</td><td><b>Endpoint</b></td></tr><tr><td style=\"display: none\">*</td><td><a href=\"https://sor2.sum.dsdn.dk/#id=441211000016000\">https://sor2.sum.dsdn.dk/#id=441211000016000</a></td></tr></table><p><b>focus</b>: <a href=\"Communication-4a003dce-060c-4d9d-b5d6-7513323049d1.html\">Communication: identifier = urn:uuid:c4a7575c-c3d7-4f34-a120-6f1ea28f9c12; status = unknown; category = Undersøgelsessvar</a></p><p><b>definition</b>: <a href=\"http://medcomfhir.dk/ig/messagedefinitions/1.0.0/MessageDefinition-MedComCareCommunicationMessageDefinitionV5.0.html\">http://medcomfhir.dk/ig/messagedefinitions/MessageDefinition/MedComCareCommunicationMessageDefinition|5.0</a></p></div>"
      },
      "eventCoding" : {
        "system" : "http://medcomfhir.dk/ig/terminology/CodeSystem/medcom-messaging-eventCodes",
        "code" : "care-communication-message"
      },
      "destination" : [{
        "extension" : [{
          "url" : "http://medcomfhir.dk/ig/messaging/StructureDefinition/medcom-messaging-destinationUseExtension",
          "valueCoding" : {
            "system" : "http://medcomfhir.dk/ig/terminology/CodeSystem/medcom-messaging-destinationUse",
            "code" : "primary"
          }
        }],
        "endpoint" : "https://sor2.sum.dsdn.dk/#id=330461000016004",
        "receiver" : {
          "reference" : "Organization/6e7761cb-2dc9-48c7-8fd4-b49d46dd9c05"
        }
      }],
      "sender" : {
        "reference" : "Organization/409b87d3-398e-44cb-9246-35b47ff75cc4"
      },
      "source" : {
        "endpoint" : "https://sor2.sum.dsdn.dk/#id=441211000016000"
      },
      "focus" : [{
        "reference" : "Communication/4a003dce-060c-4d9d-b5d6-7513323049d1"
      }],
      "definition" : "http://medcomfhir.dk/ig/messagedefinitions/MessageDefinition/MedComCareCommunicationMessageDefinition|5.0"
    }
  },
  {
    "fullUrl" : "https://medcomfhir.dk/ig/carecommunication/Patient/64610edb-bb86-4248-87ae-28c1385c3c23",
    "resource" : {
      "resourceType" : "Patient",
      "id" : "64610edb-bb86-4248-87ae-28c1385c3c23",
      "meta" : {
        "profile" : ["http://medcomfhir.dk/ig/core/StructureDefinition/medcom-core-patient"]
      },
      "text" : {
        "status" : "generated",
        "div" : "<div xmlns=\"http://www.w3.org/1999/xhtml\"><a name=\"Patient_64610edb-bb86-4248-87ae-28c1385c3c23\"> </a><p class=\"res-header-id\"><b>Generated Narrative: Patient 64610edb-bb86-4248-87ae-28c1385c3c23</b></p><a name=\"64610edb-bb86-4248-87ae-28c1385c3c23\"> </a><a name=\"hc64610edb-bb86-4248-87ae-28c1385c3c23\"> </a><div style=\"display: inline-block; background-color: #d9e0e7; padding: 6px; margin: 4px; border: 1px solid #8da1b4; border-radius: 5px; line-height: 60%\"><p style=\"margin-bottom: 0px\"/><p style=\"margin-bottom: 0px\">Profile: <a href=\"http://medcomfhir.dk/ig/core/3.0.0/StructureDefinition-medcom-core-patient.html\">MedComCorePatient</a></p></div><p style=\"border: 1px #661aff solid; background-color: #e6e6ff; padding: 10px;\">Bruno Test Elmer (official) (no stated gender), DoB Unknown ( urn:oid:1.2.208.176.1.2#2509479989)</p><hr/></div>"
      },
      "identifier" : [{
        "system" : "urn:oid:1.2.208.176.1.2",
        "value" : "2509479989"
      }],
      "name" : [{
        "use" : "official",
        "family" : "Elmer",
        "given" : ["Bruno",
        "Test"]
      }]
    }
  },
  {
    "fullUrl" : "https://medcomfhir.dk/ig/carecommunication/Communication/4a003dce-060c-4d9d-b5d6-7513323049d1",
    "resource" : {
      "resourceType" : "Communication",
      "id" : "4a003dce-060c-4d9d-b5d6-7513323049d1",
      "meta" : {
        "profile" : ["http://medcomfhir.dk/ig/carecommunication/StructureDefinition/medcom-careCommunication-communication"]
      },
      "text" : {
        "status" : "extensions",
        "div" : "<div xmlns=\"http://www.w3.org/1999/xhtml\"><a name=\"Communication_4a003dce-060c-4d9d-b5d6-7513323049d1\"> </a><p class=\"res-header-id\"><b>Generated Narrative: Communication 4a003dce-060c-4d9d-b5d6-7513323049d1</b></p><a name=\"4a003dce-060c-4d9d-b5d6-7513323049d1\"> </a><a name=\"hc4a003dce-060c-4d9d-b5d6-7513323049d1\"> </a><div style=\"display: inline-block; background-color: #d9e0e7; padding: 6px; margin: 4px; border: 1px solid #8da1b4; border-radius: 5px; line-height: 60%\"><p style=\"margin-bottom: 0px\"/><p style=\"margin-bottom: 0px\">Profile: <a href=\"http://medcomfhir.dk/ig/carecommunication/5.0.0/StructureDefinition-medcom-careCommunication-communication.html\">MedComCareCommunication</a></p></div><p><b>identifier</b>: urn:uuid:c4a7575c-c3d7-4f34-a120-6f1ea28f9c12</p><p><b>status</b>: Unknown</p><p><b>category</b>: <span title=\"Codes:{http://medcomfhir.dk/ig/terminology/CodeSystem/medcom-careCommunication-categoryCodes examination-results}\">Undersøgelsessvar</span></p><p><b>subject</b>: <a href=\"Patient-64610edb-bb86-4248-87ae-28c1385c3c23.html\">Bruno Test Elmer (official) (no stated gender), DoB Unknown ( urn:oid:1.2.208.176.1.2#2509479989)</a></p><blockquote><p><b>payload</b></p><p><b>DateTimeExtension</b>: 2024-11-10 15:20:00+0100</p><p><b>IdentifierExtension</b>: urn:uuid:6abbaeaf-0c35-4212-9fc2-48d7b520ac69</p><p><b>PractitionerExtension</b>: <a href=\"PractitionerRole-bb760c55-95b0-4f74-9b16-794e7780d5f2.html\">PractitionerRole Sygehuslæge</a></p><p><b>ContactExtension</b>: ph: 004512345789</p><p><b>content</b>: To be removed</p></blockquote></div>"
      },
      "identifier" : [{
        "value" : "urn:uuid:c4a7575c-c3d7-4f34-a120-6f1ea28f9c12"
      }],
      "status" : "unknown",
      "category" : [{
        "coding" : [{
          "system" : "http://medcomfhir.dk/ig/terminology/CodeSystem/medcom-careCommunication-categoryCodes",
          "code" : "examination-results"
        }]
      }],
      "subject" : {
        "reference" : "Patient/64610edb-bb86-4248-87ae-28c1385c3c23"
      },
      "payload" : [{
        "extension" : [{
          "url" : "http://medcomfhir.dk/ig/core/StructureDefinition/medcom-core-datetime-extension",
          "valueDateTime" : "2024-11-10T15:20:00+01:00"
        },
        {
          "url" : "http://medcomfhir.dk/ig/core/StructureDefinition/medcom-core-identifier-extension",
          "valueIdentifier" : {
            "value" : "urn:uuid:6abbaeaf-0c35-4212-9fc2-48d7b520ac69",
            "assigner" : {
              "reference" : "Organization/409b87d3-398e-44cb-9246-35b47ff75cc4"
            }
          }
        },
        {
          "url" : "http://medcomfhir.dk/ig/core/StructureDefinition/medcom-core-practitioner-extension",
          "valueReference" : {
            "reference" : "PractitionerRole/bb760c55-95b0-4f74-9b16-794e7780d5f2"
          }
        },
        {
          "url" : "http://medcomfhir.dk/ig/core/StructureDefinition/medcom-core-contact-extension",
          "valueContactPoint" : {
            "system" : "phone",
            "value" : "004512345789"
          }
        }],
        "contentString" : "To be removed"
      }]
    }
  },
  {
    "fullUrl" : "https://medcomfhir.dk/ig/carecommunication/PractitionerRole/bb760c55-95b0-4f74-9b16-794e7780d5f2",
    "resource" : {
      "resourceType" : "PractitionerRole",
      "id" : "bb760c55-95b0-4f74-9b16-794e7780d5f2",
      "meta" : {
        "profile" : ["http://medcomfhir.dk/ig/core/StructureDefinition/medcom-core-practitionerrole"]
      },
      "text" : {
        "status" : "generated",
        "div" : "<div xmlns=\"http://www.w3.org/1999/xhtml\"><a name=\"PractitionerRole_bb760c55-95b0-4f74-9b16-794e7780d5f2\"> </a><p class=\"res-header-id\"><b>Generated Narrative: PractitionerRole bb760c55-95b0-4f74-9b16-794e7780d5f2</b></p><a name=\"bb760c55-95b0-4f74-9b16-794e7780d5f2\"> </a><a name=\"hcbb760c55-95b0-4f74-9b16-794e7780d5f2\"> </a><div style=\"display: inline-block; background-color: #d9e0e7; padding: 6px; margin: 4px; border: 1px solid #8da1b4; border-radius: 5px; line-height: 60%\"><p style=\"margin-bottom: 0px\"/><p style=\"margin-bottom: 0px\">Profile: <a href=\"http://medcomfhir.dk/ig/core/3.0.0/StructureDefinition-medcom-core-practitionerrole.html\">MedComCorePractitionerRole</a></p></div><p><b>practitioner</b>: <a href=\"Practitioner-1d301fb6-9d72-4f72-9182-1f60656df133.html\">Practitioner Henrik Elderly </a></p><p><b>code</b>: <span title=\"Codes:{http://medcomfhir.dk/ig/terminology/CodeSystem/medcom-core-PractitionerRolesSKSadministrativ sygehuslaege}\">Sygehuslæge</span></p></div>"
      },
      "practitioner" : {
        "reference" : "Practitioner/1d301fb6-9d72-4f72-9182-1f60656df133"
      },
      "code" : [{
        "coding" : [{
          "system" : "http://medcomfhir.dk/ig/terminology/CodeSystem/medcom-core-PractitionerRolesSKSadministrativ",
          "code" : "sygehuslaege"
        }]
      }]
    }
  },
  {
    "fullUrl" : "https://medcomfhir.dk/ig/carecommunication/Practitioner/1d301fb6-9d72-4f72-9182-1f60656df133",
    "resource" : {
      "resourceType" : "Practitioner",
      "id" : "1d301fb6-9d72-4f72-9182-1f60656df133",
      "meta" : {
        "profile" : ["http://medcomfhir.dk/ig/core/StructureDefinition/medcom-core-practitioner"]
      },
      "text" : {
        "status" : "generated",
        "div" : "<div xmlns=\"http://www.w3.org/1999/xhtml\"><a name=\"Practitioner_1d301fb6-9d72-4f72-9182-1f60656df133\"> </a><p class=\"res-header-id\"><b>Generated Narrative: Practitioner 1d301fb6-9d72-4f72-9182-1f60656df133</b></p><a name=\"1d301fb6-9d72-4f72-9182-1f60656df133\"> </a><a name=\"hc1d301fb6-9d72-4f72-9182-1f60656df133\"> </a><div style=\"display: inline-block; background-color: #d9e0e7; padding: 6px; margin: 4px; border: 1px solid #8da1b4; border-radius: 5px; line-height: 60%\"><p style=\"margin-bottom: 0px\"/><p style=\"margin-bottom: 0px\">Profile: <a href=\"http://medcomfhir.dk/ig/core/3.0.0/StructureDefinition-medcom-core-practitioner.html\">MedComCorePractitioner</a></p></div><p><b>name</b>: Henrik Elderly </p></div>"
      },
      "name" : [{
        "family" : "Elderly",
        "given" : ["Henrik"]
      }]
    }
  },
  {
    "fullUrl" : "https://medcomfhir.dk/ig/carecommunication/Organization/409b87d3-398e-44cb-9246-35b47ff75cc4",
    "resource" : {
      "resourceType" : "Organization",
      "id" : "409b87d3-398e-44cb-9246-35b47ff75cc4",
      "meta" : {
        "profile" : ["http://medcomfhir.dk/ig/messaging/StructureDefinition/medcom-messaging-organization"]
      },
      "text" : {
        "status" : "generated",
        "div" : "<div xmlns=\"http://www.w3.org/1999/xhtml\"><a name=\"Organization_409b87d3-398e-44cb-9246-35b47ff75cc4\"> </a><p class=\"res-header-id\"><b>Generated Narrative: Organization 409b87d3-398e-44cb-9246-35b47ff75cc4</b></p><a name=\"409b87d3-398e-44cb-9246-35b47ff75cc4\"> </a><a name=\"hc409b87d3-398e-44cb-9246-35b47ff75cc4\"> </a><div style=\"display: inline-block; background-color: #d9e0e7; padding: 6px; margin: 4px; border: 1px solid #8da1b4; border-radius: 5px; line-height: 60%\"><p style=\"margin-bottom: 0px\"/><p style=\"margin-bottom: 0px\">Profile: <a href=\"http://medcomfhir.dk/ig/messaging/4.0.0/StructureDefinition-medcom-messaging-organization.html\">MedComMessagingOrganization</a></p></div><p><b>identifier</b>: <code>https://www.gs1.org/gln</code>/5790001987244, <code>urn:oid:1.2.208.176.1.1</code>/441211000016000</p><p><b>name</b>: Klinik for Ældresygdomme, AUH, Skejby</p></div>"
      },
      "identifier" : [{
        "system" : "https://www.gs1.org/gln",
        "value" : "5790001987244"
      },
      {
        "system" : "urn:oid:1.2.208.176.1.1",
        "value" : "441211000016000"
      }],
      "name" : "Klinik for Ældresygdomme, AUH, Skejby"
    }
  },
  {
    "fullUrl" : "https://medcomfhir.dk/ig/carecommunication/Organization/6e7761cb-2dc9-48c7-8fd4-b49d46dd9c05",
    "resource" : {
      "resourceType" : "Organization",
      "id" : "6e7761cb-2dc9-48c7-8fd4-b49d46dd9c05",
      "meta" : {
        "profile" : ["http://medcomfhir.dk/ig/messaging/StructureDefinition/medcom-messaging-organization"]
      },
      "text" : {
        "status" : "generated",
        "div" : "<div xmlns=\"http://www.w3.org/1999/xhtml\"><a name=\"Organization_6e7761cb-2dc9-48c7-8fd4-b49d46dd9c05\"> </a><p class=\"res-header-id\"><b>Generated Narrative: Organization 6e7761cb-2dc9-48c7-8fd4-b49d46dd9c05</b></p><a name=\"6e7761cb-2dc9-48c7-8fd4-b49d46dd9c05\"> </a><a name=\"hc6e7761cb-2dc9-48c7-8fd4-b49d46dd9c05\"> </a><div style=\"display: inline-block; background-color: #d9e0e7; padding: 6px; margin: 4px; border: 1px solid #8da1b4; border-radius: 5px; line-height: 60%\"><p style=\"margin-bottom: 0px\"/><p style=\"margin-bottom: 0px\">Profile: <a href=\"http://medcomfhir.dk/ig/messaging/4.0.0/StructureDefinition-medcom-messaging-organization.html\">MedComMessagingOrganization</a></p></div><p><b>identifier</b>: <code>https://www.gs1.org/gln</code>/5790001353308, <code>urn:oid:1.2.208.176.1.1</code>/330461000016004</p><p><b>name</b>: Sundhedsplejen, Aabenraa kommune</p></div>"
      },
      "identifier" : [{
        "system" : "https://www.gs1.org/gln",
        "value" : "5790001353308"
      },
      {
        "system" : "urn:oid:1.2.208.176.1.1",
        "value" : "330461000016004"
      }],
      "name" : "Sundhedsplejen, Aabenraa kommune"
    }
  },
  {
    "fullUrl" : "https://medcomfhir.dk/ig/carecommunication/Provenance/69620f44-c01b-4c8f-9bfe-97b00639a770",
    "resource" : {
      "resourceType" : "Provenance",
      "id" : "69620f44-c01b-4c8f-9bfe-97b00639a770",
      "meta" : {
        "profile" : ["http://medcomfhir.dk/ig/carecommunication/StructureDefinition/medcom-careCommunication-provenance"]
      },
      "text" : {
        "status" : "generated",
        "div" : "<div xmlns=\"http://www.w3.org/1999/xhtml\"><a name=\"Provenance_69620f44-c01b-4c8f-9bfe-97b00639a770\"> </a><p class=\"res-header-id\"><b>Generated Narrative: Provenance 69620f44-c01b-4c8f-9bfe-97b00639a770</b></p><a name=\"69620f44-c01b-4c8f-9bfe-97b00639a770\"> </a><a name=\"hc69620f44-c01b-4c8f-9bfe-97b00639a770\"> </a><div style=\"display: inline-block; background-color: #d9e0e7; padding: 6px; margin: 4px; border: 1px solid #8da1b4; border-radius: 5px; line-height: 60%\"><p style=\"margin-bottom: 0px\"/><p style=\"margin-bottom: 0px\">Profile: <a href=\"http://medcomfhir.dk/ig/carecommunication/5.0.0/StructureDefinition-medcom-careCommunication-provenance.html\">MedComCareCommunicationProvenance</a></p></div><p>Provenance for <a href=\"MessageHeader-5c2cdf2c-bcbd-4c15-adce-6b862a84249c.html\">MessageHeader: event[x] = Care Communication Message (MedComMessagingEventCodes#care-communication-message); definition = http://medcomfhir.dk/ig/messagedefinitions/MessageDefinition/MedComCareCommunicationMessageDefinition|5.0</a></p><p>Summary</p><table class=\"grid\"><tr><td>Occurrence</td><td>2024-11-10 15:20:00+0100</td></tr><tr><td>Recorded</td><td>2024-11-10 15:20:00+0100</td></tr><tr><td>Activity</td><td><span title=\"Codes:{http://medcomfhir.dk/ig/terminology/CodeSystem/medcom-messaging-activityCodes new-message}\">A new message has been sent</span></td></tr></table><p><b>Agents</b></p><table class=\"grid\"><tr><td><b>who</b></td></tr><tr><td><a href=\"Organization-409b87d3-398e-44cb-9246-35b47ff75cc4.html\">Organization Klinik for Ældresygdomme, AUH, Skejby</a></td></tr></table></div>"
      },
      "target" : [{
        "reference" : "MessageHeader/5c2cdf2c-bcbd-4c15-adce-6b862a84249c"
      }],
      "occurredDateTime" : "2024-11-10T15:20:00+01:00",
      "recorded" : "2024-11-10T15:20:00+01:00",
      "activity" : {
        "coding" : [{
          "system" : "http://medcomfhir.dk/ig/terminology/CodeSystem/medcom-messaging-activityCodes",
          "code" : "new-message"
        }]
      },
      "agent" : [{
        "who" : {
          "reference" : "Organization/409b87d3-398e-44cb-9246-35b47ff75cc4"
        }
      }],
      "entity" : [{
        "role" : "source",
        "what" : {
          "identifier" : {
            "value" : "urn:uuid:6abbaeaf-0c35-4212-9fc2-48d7b520ac69"
          }
        }
      }]
    }
  }]
}