{
  "resourceType" : "Bundle",
  "id" : "R-Tek-I-reply-order-7c5a0cc0-f0f8-4a2e-9de9-d9293598bf94",
  "meta" : {
    "profile" : ["http://medcomfhir.dk/ig/carecommunication/StructureDefinition/medcom-careCommunication-message|5.0.1"]
  },
  "type" : "message",
  "timestamp" : "2024-08-24T12:00:00+02:00",
  "entry" : [{
    "fullUrl" : "https://medcomfhir.dk/ig/carecommunication/MessageHeader/8f537c84-17f9-4fd1-a3d6-3d4008d6c6ec",
    "resource" : {
      "resourceType" : "MessageHeader",
      "id" : "8f537c84-17f9-4fd1-a3d6-3d4008d6c6ec",
      "meta" : {
        "profile" : ["http://medcomfhir.dk/ig/carecommunication/StructureDefinition/medcom-careCommunication-messageHeader|5.0.1"]
      },
      "text" : {
        "status" : "generated",
        "div" : "<div xmlns=\"http://www.w3.org/1999/xhtml\"><a name=\"MessageHeader_8f537c84-17f9-4fd1-a3d6-3d4008d6c6ec\"> </a><p class=\"res-header-id\"><b>Generated Narrative: MessageHeader 8f537c84-17f9-4fd1-a3d6-3d4008d6c6ec</b></p><a name=\"8f537c84-17f9-4fd1-a3d6-3d4008d6c6ec\"> </a><a name=\"hc8f537c84-17f9-4fd1-a3d6-3d4008d6c6ec\"> </a><div style=\"display: inline-block; background-color: #d9e0e7; padding: 6px; margin: 4px; border: 1px solid #8da1b4; border-radius: 5px; line-height: 60%\"><p style=\"margin-bottom: 0px\"/><p style=\"margin-bottom: 0px\">Profile: <a href=\"http://medcomfhir.dk/ig/carecommunication/5.0.1/StructureDefinition-medcom-careCommunication-messageHeader.html\">MedComCareCommunicationMessageHeaderversion: null5.0.1)</a></p></div><p><b>event</b>: <a href=\"http://medcomfhir.dk/ig/terminology/2.0.1/CodeSystem-medcom-messaging-eventCodes.html#medcom-messaging-eventCodes-care-communication-message\">MedComMessagingEventCodes care-communication-message</a>: Care Communication Message</p><h3>Destinations</h3><table class=\"grid\"><tr><td style=\"display: none\">-</td><td><b>Extension</b></td><td><b>Endpoint</b></td><td><b>Receiver</b></td></tr><tr><td style=\"display: none\">*</td><td/><td><a href=\"https://sor2.sum.dsdn.dk/#id=382871000016004\">https://sor2.sum.dsdn.dk/#id=382871000016004</a></td><td><a href=\"Organization-966bc46d-f02f-4be3-a44a-d47ebdf4fdad.html\">Organization Arden Lægehus</a></td></tr></table><p><b>sender</b>: <a href=\"Organization-55b3ef79-9e10-4b52-9d94-6c97ff5a0999.html\">Organization Hjerteafdelingen på Herlev og Gentofte hospital</a></p><h3>Sources</h3><table class=\"grid\"><tr><td style=\"display: none\">-</td><td><b>Endpoint</b></td></tr><tr><td style=\"display: none\">*</td><td><a href=\"https://sor2.sum.dsdn.dk/#id=265161000016000\">https://sor2.sum.dsdn.dk/#id=265161000016000</a></td></tr></table><p><b>focus</b>: <a href=\"Communication-26bc9e59-e225-4330-9a0c-e6f06785846d.html\">Communication: identifier = urn:uuid:d6d721a1-f4ec-4906-8946-ef808525bef1; status = unknown; category = Undersøgelsessvar; topic = </a></p><p><b>definition</b>: <a href=\"http://medcomfhir.dk/ig/messagedefinitions/1.0.0/MessageDefinition-MedComCareCommunicationMessageDefinitionV5.0.html\">http://medcomfhir.dk/ig/messagedefinitions/MessageDefinition/MedComCareCommunicationMessageDefinition|5.0</a></p></div>"
      },
      "eventCoding" : {
        "system" : "http://medcomfhir.dk/ig/terminology/CodeSystem/medcom-messaging-eventCodes",
        "code" : "care-communication-message"
      },
      "destination" : [{
        "extension" : [{
          "url" : "http://medcomfhir.dk/ig/messaging/StructureDefinition/medcom-messaging-destinationUseExtension",
          "valueCoding" : {
            "system" : "http://medcomfhir.dk/ig/terminology/CodeSystem/medcom-messaging-destinationUse",
            "code" : "primary"
          }
        }],
        "endpoint" : "https://sor2.sum.dsdn.dk/#id=382871000016004",
        "receiver" : {
          "reference" : "Organization/966bc46d-f02f-4be3-a44a-d47ebdf4fdad"
        }
      }],
      "sender" : {
        "reference" : "Organization/55b3ef79-9e10-4b52-9d94-6c97ff5a0999"
      },
      "source" : {
        "endpoint" : "https://sor2.sum.dsdn.dk/#id=265161000016000"
      },
      "focus" : [{
        "reference" : "Communication/26bc9e59-e225-4330-9a0c-e6f06785846d"
      }],
      "definition" : "http://medcomfhir.dk/ig/messagedefinitions/MessageDefinition/MedComCareCommunicationMessageDefinition|5.0"
    }
  },
  {
    "fullUrl" : "https://medcomfhir.dk/ig/carecommunication/Patient/b7fed758-bfdd-4c21-bfca-bb0b4b7081a0",
    "resource" : {
      "resourceType" : "Patient",
      "id" : "b7fed758-bfdd-4c21-bfca-bb0b4b7081a0",
      "meta" : {
        "profile" : ["http://medcomfhir.dk/ig/core/StructureDefinition/medcom-core-patient|3.0.1"]
      },
      "text" : {
        "status" : "generated",
        "div" : "<div xmlns=\"http://www.w3.org/1999/xhtml\"><a name=\"Patient_b7fed758-bfdd-4c21-bfca-bb0b4b7081a0\"> </a><p class=\"res-header-id\"><b>Generated Narrative: Patient b7fed758-bfdd-4c21-bfca-bb0b4b7081a0</b></p><a name=\"b7fed758-bfdd-4c21-bfca-bb0b4b7081a0\"> </a><a name=\"hcb7fed758-bfdd-4c21-bfca-bb0b4b7081a0\"> </a><div style=\"display: inline-block; background-color: #d9e0e7; padding: 6px; margin: 4px; border: 1px solid #8da1b4; border-radius: 5px; line-height: 60%\"><p style=\"margin-bottom: 0px\"/><p style=\"margin-bottom: 0px\">Profile: <a href=\"http://medcomfhir.dk/ig/core/3.0.1/StructureDefinition-medcom-core-patient.html\">MedComCorePatientversion: null3.0.1)</a></p></div><p style=\"border: 1px #661aff solid; background-color: #e6e6ff; padding: 10px;\">Peter Hansen (official) (no stated gender), DoB Unknown ( urn:oid:1.2.208.176.1.6.1.1#0703921VJ5)</p><hr/></div>"
      },
      "identifier" : [{
        "system" : "urn:oid:1.2.208.176.1.6.1.1",
        "value" : "0703921VJ5"
      }],
      "name" : [{
        "use" : "official",
        "family" : "Hansen",
        "given" : ["Peter"]
      }]
    }
  },
  {
    "fullUrl" : "https://medcomfhir.dk/ig/carecommunication/Communication/26bc9e59-e225-4330-9a0c-e6f06785846d",
    "resource" : {
      "resourceType" : "Communication",
      "id" : "26bc9e59-e225-4330-9a0c-e6f06785846d",
      "meta" : {
        "profile" : ["http://medcomfhir.dk/ig/carecommunication/StructureDefinition/medcom-careCommunication-communication|5.0.1"]
      },
      "text" : {
        "status" : "extensions",
        "div" : "<div xmlns=\"http://www.w3.org/1999/xhtml\"><a name=\"Communication_26bc9e59-e225-4330-9a0c-e6f06785846d\"> </a><p class=\"res-header-id\"><b>Generated Narrative: Communication 26bc9e59-e225-4330-9a0c-e6f06785846d</b></p><a name=\"26bc9e59-e225-4330-9a0c-e6f06785846d\"> </a><a name=\"hc26bc9e59-e225-4330-9a0c-e6f06785846d\"> </a><div style=\"display: inline-block; background-color: #d9e0e7; padding: 6px; margin: 4px; border: 1px solid #8da1b4; border-radius: 5px; line-height: 60%\"><p style=\"margin-bottom: 0px\"/><p style=\"margin-bottom: 0px\">Profile: <a href=\"http://medcomfhir.dk/ig/carecommunication/5.0.1/StructureDefinition-medcom-careCommunication-communication.html\">MedComCareCommunicationversion: null5.0.1)</a></p></div><p><b>identifier</b>: urn:uuid:d6d721a1-f4ec-4906-8946-ef808525bef1</p><p><b>status</b>: Unknown</p><p><b>category</b>: <span title=\"Codes:{http://medcomfhir.dk/ig/terminology/CodeSystem/medcom-careCommunication-categoryCodes examination-results}\">Undersøgelsessvar</span></p><p><b>subject</b>: <a href=\"Patient-b7fed758-bfdd-4c21-bfca-bb0b4b7081a0.html\">Peter Hansen (official) (no stated gender), DoB Unknown ( urn:oid:1.2.208.176.1.6.1.1#0703921VJ5)</a></p><p><b>topic</b>: <span title=\"Codes:\">Forspørgsel på seneste resultater</span></p><blockquote><p><b>payload</b></p><p><b>DateTimeExtension</b>: 2024-08-24 12:00:00+0200</p><p><b>IdentifierExtension</b>: urn:uuid:67ebe566-c20e-4885-8fff-5552875ef74c</p><p><b>PractitionerExtension</b>: <a href=\"PractitionerRole-569a1bff-55a1-4868-a7b4-80fedb2066e3.html\">PractitionerRole Sygeplejerske</a></p><p><b>ContactExtension</b>: ph: 38683868</p><p><b>content</b>: Til rette vedkommende. Vi ønsker information om de seneste undersøgelser udført på Bruno.\nPå forhånd tak.\nHilsen Michael Burns\nSygeplejerske</p></blockquote></div>"
      },
      "identifier" : [{
        "value" : "urn:uuid:d6d721a1-f4ec-4906-8946-ef808525bef1"
      }],
      "status" : "unknown",
      "category" : [{
        "coding" : [{
          "system" : "http://medcomfhir.dk/ig/terminology/CodeSystem/medcom-careCommunication-categoryCodes",
          "code" : "examination-results"
        }]
      }],
      "subject" : {
        "reference" : "Patient/b7fed758-bfdd-4c21-bfca-bb0b4b7081a0"
      },
      "topic" : {
        "text" : "Forspørgsel på seneste resultater"
      },
      "payload" : [{
        "extension" : [{
          "url" : "http://medcomfhir.dk/ig/core/StructureDefinition/medcom-core-datetime-extension",
          "valueDateTime" : "2024-08-24T12:00:00+02:00"
        },
        {
          "url" : "http://medcomfhir.dk/ig/core/StructureDefinition/medcom-core-identifier-extension",
          "valueIdentifier" : {
            "value" : "urn:uuid:67ebe566-c20e-4885-8fff-5552875ef74c",
            "assigner" : {
              "reference" : "Organization/55b3ef79-9e10-4b52-9d94-6c97ff5a0999"
            }
          }
        },
        {
          "url" : "http://medcomfhir.dk/ig/core/StructureDefinition/medcom-core-practitioner-extension",
          "valueReference" : {
            "reference" : "PractitionerRole/569a1bff-55a1-4868-a7b4-80fedb2066e3"
          }
        },
        {
          "url" : "http://medcomfhir.dk/ig/core/StructureDefinition/medcom-core-contact-extension",
          "valueContactPoint" : {
            "system" : "phone",
            "value" : "38683868"
          }
        }],
        "contentString" : "Til rette vedkommende. Vi ønsker information om de seneste undersøgelser udført på Bruno.\nPå forhånd tak.\nHilsen Michael Burns\nSygeplejerske"
      }]
    }
  },
  {
    "fullUrl" : "https://medcomfhir.dk/ig/carecommunication/PractitionerRole/569a1bff-55a1-4868-a7b4-80fedb2066e3",
    "resource" : {
      "resourceType" : "PractitionerRole",
      "id" : "569a1bff-55a1-4868-a7b4-80fedb2066e3",
      "meta" : {
        "profile" : ["http://medcomfhir.dk/ig/core/StructureDefinition/medcom-core-practitionerrole|3.0.1"]
      },
      "text" : {
        "status" : "generated",
        "div" : "<div xmlns=\"http://www.w3.org/1999/xhtml\"><a name=\"PractitionerRole_569a1bff-55a1-4868-a7b4-80fedb2066e3\"> </a><p class=\"res-header-id\"><b>Generated Narrative: PractitionerRole 569a1bff-55a1-4868-a7b4-80fedb2066e3</b></p><a name=\"569a1bff-55a1-4868-a7b4-80fedb2066e3\"> </a><a name=\"hc569a1bff-55a1-4868-a7b4-80fedb2066e3\"> </a><div style=\"display: inline-block; background-color: #d9e0e7; padding: 6px; margin: 4px; border: 1px solid #8da1b4; border-radius: 5px; line-height: 60%\"><p style=\"margin-bottom: 0px\"/><p style=\"margin-bottom: 0px\">Profile: <a href=\"http://medcomfhir.dk/ig/core/3.0.1/StructureDefinition-medcom-core-practitionerrole.html\">MedComCorePractitionerRoleversion: null3.0.1)</a></p></div><p><b>practitioner</b>: <a href=\"Practitioner-a28e0818-2957-4d60-bc86-41d236bf23db.html\">Practitioner Michael Burns </a></p><p><b>code</b>: <span title=\"Codes:{http://medcomfhir.dk/ig/terminology/CodeSystem/medcom-core-PractitionerRolesSKSadministrativ sygeplejerske}\">Sygeplejerske</span></p></div>"
      },
      "practitioner" : {
        "reference" : "Practitioner/a28e0818-2957-4d60-bc86-41d236bf23db"
      },
      "code" : [{
        "coding" : [{
          "system" : "http://medcomfhir.dk/ig/terminology/CodeSystem/medcom-core-PractitionerRolesSKSadministrativ",
          "code" : "sygeplejerske"
        }]
      }]
    }
  },
  {
    "fullUrl" : "https://medcomfhir.dk/ig/carecommunication/Practitioner/a28e0818-2957-4d60-bc86-41d236bf23db",
    "resource" : {
      "resourceType" : "Practitioner",
      "id" : "a28e0818-2957-4d60-bc86-41d236bf23db",
      "meta" : {
        "profile" : ["http://medcomfhir.dk/ig/core/StructureDefinition/medcom-core-practitioner|3.0.1"]
      },
      "text" : {
        "status" : "generated",
        "div" : "<div xmlns=\"http://www.w3.org/1999/xhtml\"><a name=\"Practitioner_a28e0818-2957-4d60-bc86-41d236bf23db\"> </a><p class=\"res-header-id\"><b>Generated Narrative: Practitioner a28e0818-2957-4d60-bc86-41d236bf23db</b></p><a name=\"a28e0818-2957-4d60-bc86-41d236bf23db\"> </a><a name=\"hca28e0818-2957-4d60-bc86-41d236bf23db\"> </a><div style=\"display: inline-block; background-color: #d9e0e7; padding: 6px; margin: 4px; border: 1px solid #8da1b4; border-radius: 5px; line-height: 60%\"><p style=\"margin-bottom: 0px\"/><p style=\"margin-bottom: 0px\">Profile: <a href=\"http://medcomfhir.dk/ig/core/3.0.1/StructureDefinition-medcom-core-practitioner.html\">MedComCorePractitionerversion: null3.0.1)</a></p></div><p><b>name</b>: Michael Burns </p></div>"
      },
      "name" : [{
        "family" : "Burns",
        "given" : ["Michael"]
      }]
    }
  },
  {
    "fullUrl" : "https://medcomfhir.dk/ig/carecommunication/Organization/966bc46d-f02f-4be3-a44a-d47ebdf4fdad",
    "resource" : {
      "resourceType" : "Organization",
      "id" : "966bc46d-f02f-4be3-a44a-d47ebdf4fdad",
      "meta" : {
        "profile" : ["http://medcomfhir.dk/ig/messaging/StructureDefinition/medcom-messaging-organization|4.0.1"]
      },
      "text" : {
        "status" : "generated",
        "div" : "<div xmlns=\"http://www.w3.org/1999/xhtml\"><a name=\"Organization_966bc46d-f02f-4be3-a44a-d47ebdf4fdad\"> </a><p class=\"res-header-id\"><b>Generated Narrative: Organization 966bc46d-f02f-4be3-a44a-d47ebdf4fdad</b></p><a name=\"966bc46d-f02f-4be3-a44a-d47ebdf4fdad\"> </a><a name=\"hc966bc46d-f02f-4be3-a44a-d47ebdf4fdad\"> </a><div style=\"display: inline-block; background-color: #d9e0e7; padding: 6px; margin: 4px; border: 1px solid #8da1b4; border-radius: 5px; line-height: 60%\"><p style=\"margin-bottom: 0px\"/><p style=\"margin-bottom: 0px\">Profile: <a href=\"http://medcomfhir.dk/ig/messaging/4.0.1/StructureDefinition-medcom-messaging-organization.html\">MedComMessagingOrganizationversion: null4.0.1)</a></p></div><p><b>identifier</b>: <code>https://www.gs1.org/gln</code>/5790001387419, <code>urn:oid:1.2.208.176.1.1</code>/382871000016004</p><p><b>name</b>: Arden Lægehus</p></div>"
      },
      "identifier" : [{
        "system" : "https://www.gs1.org/gln",
        "value" : "5790001387419"
      },
      {
        "system" : "urn:oid:1.2.208.176.1.1",
        "value" : "382871000016004"
      }],
      "name" : "Arden Lægehus"
    }
  },
  {
    "fullUrl" : "https://medcomfhir.dk/ig/carecommunication/Organization/55b3ef79-9e10-4b52-9d94-6c97ff5a0999",
    "resource" : {
      "resourceType" : "Organization",
      "id" : "55b3ef79-9e10-4b52-9d94-6c97ff5a0999",
      "meta" : {
        "profile" : ["http://medcomfhir.dk/ig/messaging/StructureDefinition/medcom-messaging-organization|4.0.1"]
      },
      "text" : {
        "status" : "generated",
        "div" : "<div xmlns=\"http://www.w3.org/1999/xhtml\"><a name=\"Organization_55b3ef79-9e10-4b52-9d94-6c97ff5a0999\"> </a><p class=\"res-header-id\"><b>Generated Narrative: Organization 55b3ef79-9e10-4b52-9d94-6c97ff5a0999</b></p><a name=\"55b3ef79-9e10-4b52-9d94-6c97ff5a0999\"> </a><a name=\"hc55b3ef79-9e10-4b52-9d94-6c97ff5a0999\"> </a><div style=\"display: inline-block; background-color: #d9e0e7; padding: 6px; margin: 4px; border: 1px solid #8da1b4; border-radius: 5px; line-height: 60%\"><p style=\"margin-bottom: 0px\"/><p style=\"margin-bottom: 0px\">Profile: <a href=\"http://medcomfhir.dk/ig/messaging/4.0.1/StructureDefinition-medcom-messaging-organization.html\">MedComMessagingOrganizationversion: null4.0.1)</a></p></div><p><b>identifier</b>: <code>https://www.gs1.org/gln</code>/5790000209354, <code>urn:oid:1.2.208.176.1.1</code>/265161000016000</p><p><b>name</b>: Hjerteafdelingen på Herlev og Gentofte hospital</p></div>"
      },
      "identifier" : [{
        "system" : "https://www.gs1.org/gln",
        "value" : "5790000209354"
      },
      {
        "system" : "urn:oid:1.2.208.176.1.1",
        "value" : "265161000016000"
      }],
      "name" : "Hjerteafdelingen på Herlev og Gentofte hospital"
    }
  },
  {
    "fullUrl" : "https://medcomfhir.dk/ig/carecommunication/Provenance/0696ca09-5213-4b6c-98e6-0d7c05c16080",
    "resource" : {
      "resourceType" : "Provenance",
      "id" : "0696ca09-5213-4b6c-98e6-0d7c05c16080",
      "meta" : {
        "profile" : ["http://medcomfhir.dk/ig/carecommunication/StructureDefinition/medcom-careCommunication-provenance"]
      },
      "text" : {
        "status" : "generated",
        "div" : "<div xmlns=\"http://www.w3.org/1999/xhtml\"><a name=\"Provenance_0696ca09-5213-4b6c-98e6-0d7c05c16080\"> </a><p class=\"res-header-id\"><b>Generated Narrative: Provenance 0696ca09-5213-4b6c-98e6-0d7c05c16080</b></p><a name=\"0696ca09-5213-4b6c-98e6-0d7c05c16080\"> </a><a name=\"hc0696ca09-5213-4b6c-98e6-0d7c05c16080\"> </a><div style=\"display: inline-block; background-color: #d9e0e7; padding: 6px; margin: 4px; border: 1px solid #8da1b4; border-radius: 5px; line-height: 60%\"><p style=\"margin-bottom: 0px\"/><p style=\"margin-bottom: 0px\">Profile: <a href=\"http://medcomfhir.dk/ig/carecommunication/5.0.1/StructureDefinition-medcom-careCommunication-provenance.html\">MedComCareCommunicationProvenance</a></p></div><p>Provenance for <a href=\"MessageHeader-8f537c84-17f9-4fd1-a3d6-3d4008d6c6ec.html\">MessageHeader: event[x] = Care Communication Message (MedComMessagingEventCodes#care-communication-message); definition = http://medcomfhir.dk/ig/messagedefinitions/MessageDefinition/MedComCareCommunicationMessageDefinition|5.0</a></p><p>Summary</p><table class=\"grid\"><tr><td>Occurrence</td><td>2024-08-24 12:00:00+0200</td></tr><tr><td>Recorded</td><td>2024-08-24 12:00:00+0200</td></tr><tr><td>Activity</td><td><span title=\"Codes:{http://medcomfhir.dk/ig/terminology/CodeSystem/medcom-messaging-activityCodes new-message}\">A new message has been sent</span></td></tr></table><p><b>Agents</b></p><table class=\"grid\"><tr><td><b>who</b></td></tr><tr><td><a href=\"Organization-55b3ef79-9e10-4b52-9d94-6c97ff5a0999.html\">Organization Hjerteafdelingen på Herlev og Gentofte hospital</a></td></tr></table></div>"
      },
      "target" : [{
        "reference" : "MessageHeader/8f537c84-17f9-4fd1-a3d6-3d4008d6c6ec"
      }],
      "occurredDateTime" : "2024-08-24T12:00:00+02:00",
      "recorded" : "2024-08-24T12:00:00+02:00",
      "activity" : {
        "coding" : [{
          "system" : "http://medcomfhir.dk/ig/terminology/CodeSystem/medcom-messaging-activityCodes",
          "code" : "new-message"
        }]
      },
      "agent" : [{
        "who" : {
          "reference" : "Organization/55b3ef79-9e10-4b52-9d94-6c97ff5a0999"
        }
      }],
      "entity" : [{
        "role" : "source",
        "what" : {
          "identifier" : {
            "value" : "urn:uuid:67ebe566-c20e-4885-8fff-5552875ef74c"
          }
        }
      }]
    }
  }]
}