<?xml version="1.0" encoding="UTF-8"?>

<Bundle xmlns="http://hl7.org/fhir">
  <id value="R-Tek-O-invalid-3d1149cd-d3e3-421a-ae31-4860decb4272"/>
  <meta>
    <profile value="http://medcomfhir.dk/ig/carecommunication/StructureDefinition/medcom-careCommunication-message"/>
  </meta>
  <type value="message"/>
  <timestamp value="2024-11-10T15:20:00+01:00"/>
  <entry>
    <fullUrl value="https://medcomfhir.dk/ig/carecommunication/MessageHeader/5c2cdf2c-bcbd-4c15-adce-6b862a84249c"/>
    <resource>
      <MessageHeader>
        <id value="5c2cdf2c-bcbd-4c15-adce-6b862a84249c"/>
        <meta>
          <profile value="http://medcomfhir.dk/ig/carecommunication/StructureDefinition/medcom-careCommunication-messageHeader"/>
        </meta>
        <text>
          <status value="generated"/><div xmlns="http://www.w3.org/1999/xhtml"><a name="MessageHeader_5c2cdf2c-bcbd-4c15-adce-6b862a84249c"> </a><p class="res-header-id"><b>Generated Narrative: MessageHeader 5c2cdf2c-bcbd-4c15-adce-6b862a84249c</b></p><a name="5c2cdf2c-bcbd-4c15-adce-6b862a84249c"> </a><a name="hc5c2cdf2c-bcbd-4c15-adce-6b862a84249c"> </a><div style="display: inline-block; background-color: #d9e0e7; padding: 6px; margin: 4px; border: 1px solid #8da1b4; border-radius: 5px; line-height: 60%"><p style="margin-bottom: 0px"/><p style="margin-bottom: 0px">Profile: <a href="http://medcomfhir.dk/ig/carecommunication/5.0.0/StructureDefinition-medcom-careCommunication-messageHeader.html">MedComCareCommunicationMessageHeader</a></p></div><p><b>event</b>: <a href="http://medcomfhir.dk/ig/terminology/1.8.1/CodeSystem-medcom-messaging-eventCodes.html#medcom-messaging-eventCodes-care-communication-message">MedComMessagingEventCodes care-communication-message</a>: Care Communication Message</p><h3>Destinations</h3><table class="grid"><tr><td style="display: none">-</td><td><b>Extension</b></td><td><b>Endpoint</b></td><td><b>Receiver</b></td></tr><tr><td style="display: none">*</td><td/><td><a href="https://sor2.sum.dsdn.dk/#id=330461000016004">https://sor2.sum.dsdn.dk/#id=330461000016004</a></td><td><a href="Organization-6e7761cb-2dc9-48c7-8fd4-b49d46dd9c05.html">Organization Sundhedsplejen, Aabenraa kommune</a></td></tr></table><p><b>sender</b>: <a href="Organization-409b87d3-398e-44cb-9246-35b47ff75cc4.html">Organization Klinik for Ældresygdomme, AUH, Skejby</a></p><h3>Sources</h3><table class="grid"><tr><td style="display: none">-</td><td><b>Endpoint</b></td></tr><tr><td style="display: none">*</td><td><a href="https://sor2.sum.dsdn.dk/#id=441211000016000">https://sor2.sum.dsdn.dk/#id=441211000016000</a></td></tr></table><p><b>focus</b>: <a href="Communication-4a003dce-060c-4d9d-b5d6-7513323049d1.html">Communication: identifier = urn:uuid:c4a7575c-c3d7-4f34-a120-6f1ea28f9c12; status = unknown; category = Undersøgelsessvar</a></p><p><b>definition</b>: <a href="http://medcomfhir.dk/ig/messagedefinitions/1.0.0/MessageDefinition-MedComCareCommunicationMessageDefinitionV5.0.html">http://medcomfhir.dk/ig/messagedefinitions/MessageDefinition/MedComCareCommunicationMessageDefinition|5.0</a></p></div>
        </text>
        <eventCoding>
          <system value="http://medcomfhir.dk/ig/terminology/CodeSystem/medcom-messaging-eventCodes"/>
          <code value="care-communication-message"/>
        </eventCoding>
        <destination>
          <extension url="http://medcomfhir.dk/ig/messaging/StructureDefinition/medcom-messaging-destinationUseExtension">
            <valueCoding>
              <system value="http://medcomfhir.dk/ig/terminology/CodeSystem/medcom-messaging-destinationUse"/>
              <code value="primary"/>
            </valueCoding>
          </extension>
          <endpoint value="https://sor2.sum.dsdn.dk/#id=330461000016004"/>
          <receiver>
            <reference value="Organization/6e7761cb-2dc9-48c7-8fd4-b49d46dd9c05"/>
          </receiver>
        </destination>
        <sender>
          <reference value="Organization/409b87d3-398e-44cb-9246-35b47ff75cc4"/>
        </sender>
        <source>
          <endpoint value="https://sor2.sum.dsdn.dk/#id=441211000016000"/>
        </source>
        <focus>
          <reference value="Communication/4a003dce-060c-4d9d-b5d6-7513323049d1"/>
        </focus>
        <definition value="http://medcomfhir.dk/ig/messagedefinitions/MessageDefinition/MedComCareCommunicationMessageDefinition|5.0"/>
      </MessageHeader>
    </resource>
  </entry>
  <entry>
    <fullUrl value="https://medcomfhir.dk/ig/carecommunication/Patient/64610edb-bb86-4248-87ae-28c1385c3c23"/>
    <resource>
      <Patient>
        <id value="64610edb-bb86-4248-87ae-28c1385c3c23"/>
        <meta>
          <profile value="http://medcomfhir.dk/ig/core/StructureDefinition/medcom-core-patient"/>
        </meta>
        <text>
          <status value="generated"/><div xmlns="http://www.w3.org/1999/xhtml"><a name="Patient_64610edb-bb86-4248-87ae-28c1385c3c23"> </a><p class="res-header-id"><b>Generated Narrative: Patient 64610edb-bb86-4248-87ae-28c1385c3c23</b></p><a name="64610edb-bb86-4248-87ae-28c1385c3c23"> </a><a name="hc64610edb-bb86-4248-87ae-28c1385c3c23"> </a><div style="display: inline-block; background-color: #d9e0e7; padding: 6px; margin: 4px; border: 1px solid #8da1b4; border-radius: 5px; line-height: 60%"><p style="margin-bottom: 0px"/><p style="margin-bottom: 0px">Profile: <a href="http://medcomfhir.dk/ig/core/3.0.0/StructureDefinition-medcom-core-patient.html">MedComCorePatient</a></p></div><p style="border: 1px #661aff solid; background-color: #e6e6ff; padding: 10px;">Bruno Test Elmer (official) (no stated gender), DoB Unknown ( urn:oid:1.2.208.176.1.2#2509479989)</p><hr/></div>
        </text>
        <identifier>
          <system value="urn:oid:1.2.208.176.1.2"/>
          <value value="2509479989"/>
        </identifier>
        <name>
          <use value="official"/>
          <family value="Elmer"/>
          <given value="Bruno"/>
          <given value="Test"/>
        </name>
      </Patient>
    </resource>
  </entry>
  <entry>
    <fullUrl value="https://medcomfhir.dk/ig/carecommunication/Communication/4a003dce-060c-4d9d-b5d6-7513323049d1"/>
    <resource>
      <Communication>
        <id value="4a003dce-060c-4d9d-b5d6-7513323049d1"/>
        <meta>
          <profile value="http://medcomfhir.dk/ig/carecommunication/StructureDefinition/medcom-careCommunication-communication"/>
        </meta>
        <text>
          <status value="extensions"/><div xmlns="http://www.w3.org/1999/xhtml"><a name="Communication_4a003dce-060c-4d9d-b5d6-7513323049d1"> </a><p class="res-header-id"><b>Generated Narrative: Communication 4a003dce-060c-4d9d-b5d6-7513323049d1</b></p><a name="4a003dce-060c-4d9d-b5d6-7513323049d1"> </a><a name="hc4a003dce-060c-4d9d-b5d6-7513323049d1"> </a><div style="display: inline-block; background-color: #d9e0e7; padding: 6px; margin: 4px; border: 1px solid #8da1b4; border-radius: 5px; line-height: 60%"><p style="margin-bottom: 0px"/><p style="margin-bottom: 0px">Profile: <a href="http://medcomfhir.dk/ig/carecommunication/5.0.0/StructureDefinition-medcom-careCommunication-communication.html">MedComCareCommunication</a></p></div><p><b>identifier</b>: urn:uuid:c4a7575c-c3d7-4f34-a120-6f1ea28f9c12</p><p><b>status</b>: Unknown</p><p><b>category</b>: <span title="Codes:{http://medcomfhir.dk/ig/terminology/CodeSystem/medcom-careCommunication-categoryCodes examination-results}">Undersøgelsessvar</span></p><p><b>subject</b>: <a href="Patient-64610edb-bb86-4248-87ae-28c1385c3c23.html">Bruno Test Elmer (official) (no stated gender), DoB Unknown ( urn:oid:1.2.208.176.1.2#2509479989)</a></p><blockquote><p><b>payload</b></p><p><b>DateTimeExtension</b>: 2024-11-10 15:20:00+0100</p><p><b>IdentifierExtension</b>: urn:uuid:6abbaeaf-0c35-4212-9fc2-48d7b520ac69</p><p><b>PractitionerExtension</b>: <a href="PractitionerRole-bb760c55-95b0-4f74-9b16-794e7780d5f2.html">PractitionerRole Sygehuslæge</a></p><p><b>ContactExtension</b>: ph: 004512345789</p><p><b>content</b>: To be removed</p></blockquote></div>
        </text>
        <identifier>
          <value value="urn:uuid:c4a7575c-c3d7-4f34-a120-6f1ea28f9c12"/>
        </identifier>
        <status value="unknown"/>
        <category>
          <coding>
            <system value="http://medcomfhir.dk/ig/terminology/CodeSystem/medcom-careCommunication-categoryCodes"/>
            <code value="examination-results"/>
          </coding>
        </category>
        <subject>
          <reference value="Patient/64610edb-bb86-4248-87ae-28c1385c3c23"/>
        </subject>
        <payload>
          <extension url="http://medcomfhir.dk/ig/core/StructureDefinition/medcom-core-datetime-extension">
            <valueDateTime value="2024-11-10T15:20:00+01:00"/>
          </extension>
          <extension url="http://medcomfhir.dk/ig/core/StructureDefinition/medcom-core-identifier-extension">
            <valueIdentifier>
              <value value="urn:uuid:6abbaeaf-0c35-4212-9fc2-48d7b520ac69"/>
              <assigner>
                <reference value="Organization/409b87d3-398e-44cb-9246-35b47ff75cc4"/>
              </assigner>
            </valueIdentifier>
          </extension>
          <extension url="http://medcomfhir.dk/ig/core/StructureDefinition/medcom-core-practitioner-extension">
            <valueReference>
              <reference value="PractitionerRole/bb760c55-95b0-4f74-9b16-794e7780d5f2"/>
            </valueReference>
          </extension>
          <extension url="http://medcomfhir.dk/ig/core/StructureDefinition/medcom-core-contact-extension">
            <valueContactPoint>
              <system value="phone"/>
              <value value="004512345789"/>
            </valueContactPoint>
          </extension>
          <contentString value="To be removed"/>
        </payload>
      </Communication>
    </resource>
  </entry>
  <entry>
    <fullUrl value="https://medcomfhir.dk/ig/carecommunication/PractitionerRole/bb760c55-95b0-4f74-9b16-794e7780d5f2"/>
    <resource>
      <PractitionerRole>
        <id value="bb760c55-95b0-4f74-9b16-794e7780d5f2"/>
        <meta>
          <profile value="http://medcomfhir.dk/ig/core/StructureDefinition/medcom-core-practitionerrole"/>
        </meta>
        <text>
          <status value="generated"/><div xmlns="http://www.w3.org/1999/xhtml"><a name="PractitionerRole_bb760c55-95b0-4f74-9b16-794e7780d5f2"> </a><p class="res-header-id"><b>Generated Narrative: PractitionerRole bb760c55-95b0-4f74-9b16-794e7780d5f2</b></p><a name="bb760c55-95b0-4f74-9b16-794e7780d5f2"> </a><a name="hcbb760c55-95b0-4f74-9b16-794e7780d5f2"> </a><div style="display: inline-block; background-color: #d9e0e7; padding: 6px; margin: 4px; border: 1px solid #8da1b4; border-radius: 5px; line-height: 60%"><p style="margin-bottom: 0px"/><p style="margin-bottom: 0px">Profile: <a href="http://medcomfhir.dk/ig/core/3.0.0/StructureDefinition-medcom-core-practitionerrole.html">MedComCorePractitionerRole</a></p></div><p><b>practitioner</b>: <a href="Practitioner-1d301fb6-9d72-4f72-9182-1f60656df133.html">Practitioner Henrik Elderly </a></p><p><b>code</b>: <span title="Codes:{http://medcomfhir.dk/ig/terminology/CodeSystem/medcom-core-PractitionerRolesSKSadministrativ sygehuslaege}">Sygehuslæge</span></p></div>
        </text>
        <practitioner>
          <reference value="Practitioner/1d301fb6-9d72-4f72-9182-1f60656df133"/>
        </practitioner>
        <code>
          <coding>
            <system value="http://medcomfhir.dk/ig/terminology/CodeSystem/medcom-core-PractitionerRolesSKSadministrativ"/>
            <code value="sygehuslaege"/>
          </coding>
        </code>
      </PractitionerRole>
    </resource>
  </entry>
  <entry>
    <fullUrl value="https://medcomfhir.dk/ig/carecommunication/Practitioner/1d301fb6-9d72-4f72-9182-1f60656df133"/>
    <resource>
      <Practitioner>
        <id value="1d301fb6-9d72-4f72-9182-1f60656df133"/>
        <meta>
          <profile value="http://medcomfhir.dk/ig/core/StructureDefinition/medcom-core-practitioner"/>
        </meta>
        <text>
          <status value="generated"/><div xmlns="http://www.w3.org/1999/xhtml"><a name="Practitioner_1d301fb6-9d72-4f72-9182-1f60656df133"> </a><p class="res-header-id"><b>Generated Narrative: Practitioner 1d301fb6-9d72-4f72-9182-1f60656df133</b></p><a name="1d301fb6-9d72-4f72-9182-1f60656df133"> </a><a name="hc1d301fb6-9d72-4f72-9182-1f60656df133"> </a><div style="display: inline-block; background-color: #d9e0e7; padding: 6px; margin: 4px; border: 1px solid #8da1b4; border-radius: 5px; line-height: 60%"><p style="margin-bottom: 0px"/><p style="margin-bottom: 0px">Profile: <a href="http://medcomfhir.dk/ig/core/3.0.0/StructureDefinition-medcom-core-practitioner.html">MedComCorePractitioner</a></p></div><p><b>name</b>: Henrik Elderly </p></div>
        </text>
        <name>
          <family value="Elderly"/>
          <given value="Henrik"/>
        </name>
      </Practitioner>
    </resource>
  </entry>
  <entry>
    <fullUrl value="https://medcomfhir.dk/ig/carecommunication/Organization/409b87d3-398e-44cb-9246-35b47ff75cc4"/>
    <resource>
      <Organization>
        <id value="409b87d3-398e-44cb-9246-35b47ff75cc4"/>
        <meta>
          <profile value="http://medcomfhir.dk/ig/messaging/StructureDefinition/medcom-messaging-organization"/>
        </meta>
        <text>
          <status value="generated"/><div xmlns="http://www.w3.org/1999/xhtml"><a name="Organization_409b87d3-398e-44cb-9246-35b47ff75cc4"> </a><p class="res-header-id"><b>Generated Narrative: Organization 409b87d3-398e-44cb-9246-35b47ff75cc4</b></p><a name="409b87d3-398e-44cb-9246-35b47ff75cc4"> </a><a name="hc409b87d3-398e-44cb-9246-35b47ff75cc4"> </a><div style="display: inline-block; background-color: #d9e0e7; padding: 6px; margin: 4px; border: 1px solid #8da1b4; border-radius: 5px; line-height: 60%"><p style="margin-bottom: 0px"/><p style="margin-bottom: 0px">Profile: <a href="http://medcomfhir.dk/ig/messaging/4.0.0/StructureDefinition-medcom-messaging-organization.html">MedComMessagingOrganization</a></p></div><p><b>identifier</b>: <code>https://www.gs1.org/gln</code>/5790001987244, <code>urn:oid:1.2.208.176.1.1</code>/441211000016000</p><p><b>name</b>: Klinik for Ældresygdomme, AUH, Skejby</p></div>
        </text>
        <identifier>
          <system value="https://www.gs1.org/gln"/>
          <value value="5790001987244"/>
        </identifier>
        <identifier>
          <system value="urn:oid:1.2.208.176.1.1"/>
          <value value="441211000016000"/>
        </identifier>
        <name value="Klinik for Ældresygdomme, AUH, Skejby"/>
      </Organization>
    </resource>
  </entry>
  <entry>
    <fullUrl value="https://medcomfhir.dk/ig/carecommunication/Organization/6e7761cb-2dc9-48c7-8fd4-b49d46dd9c05"/>
    <resource>
      <Organization>
        <id value="6e7761cb-2dc9-48c7-8fd4-b49d46dd9c05"/>
        <meta>
          <profile value="http://medcomfhir.dk/ig/messaging/StructureDefinition/medcom-messaging-organization"/>
        </meta>
        <text>
          <status value="generated"/><div xmlns="http://www.w3.org/1999/xhtml"><a name="Organization_6e7761cb-2dc9-48c7-8fd4-b49d46dd9c05"> </a><p class="res-header-id"><b>Generated Narrative: Organization 6e7761cb-2dc9-48c7-8fd4-b49d46dd9c05</b></p><a name="6e7761cb-2dc9-48c7-8fd4-b49d46dd9c05"> </a><a name="hc6e7761cb-2dc9-48c7-8fd4-b49d46dd9c05"> </a><div style="display: inline-block; background-color: #d9e0e7; padding: 6px; margin: 4px; border: 1px solid #8da1b4; border-radius: 5px; line-height: 60%"><p style="margin-bottom: 0px"/><p style="margin-bottom: 0px">Profile: <a href="http://medcomfhir.dk/ig/messaging/4.0.0/StructureDefinition-medcom-messaging-organization.html">MedComMessagingOrganization</a></p></div><p><b>identifier</b>: <code>https://www.gs1.org/gln</code>/5790001353308, <code>urn:oid:1.2.208.176.1.1</code>/330461000016004</p><p><b>name</b>: Sundhedsplejen, Aabenraa kommune</p></div>
        </text>
        <identifier>
          <system value="https://www.gs1.org/gln"/>
          <value value="5790001353308"/>
        </identifier>
        <identifier>
          <system value="urn:oid:1.2.208.176.1.1"/>
          <value value="330461000016004"/>
        </identifier>
        <name value="Sundhedsplejen, Aabenraa kommune"/>
      </Organization>
    </resource>
  </entry>
  <entry>
    <fullUrl value="https://medcomfhir.dk/ig/carecommunication/Provenance/69620f44-c01b-4c8f-9bfe-97b00639a770"/>
    <resource>
      <Provenance>
        <id value="69620f44-c01b-4c8f-9bfe-97b00639a770"/>
        <meta>
          <profile value="http://medcomfhir.dk/ig/carecommunication/StructureDefinition/medcom-careCommunication-provenance"/>
        </meta>
        <text>
          <status value="generated"/><div xmlns="http://www.w3.org/1999/xhtml"><a name="Provenance_69620f44-c01b-4c8f-9bfe-97b00639a770"> </a><p class="res-header-id"><b>Generated Narrative: Provenance 69620f44-c01b-4c8f-9bfe-97b00639a770</b></p><a name="69620f44-c01b-4c8f-9bfe-97b00639a770"> </a><a name="hc69620f44-c01b-4c8f-9bfe-97b00639a770"> </a><div style="display: inline-block; background-color: #d9e0e7; padding: 6px; margin: 4px; border: 1px solid #8da1b4; border-radius: 5px; line-height: 60%"><p style="margin-bottom: 0px"/><p style="margin-bottom: 0px">Profile: <a href="http://medcomfhir.dk/ig/carecommunication/5.0.0/StructureDefinition-medcom-careCommunication-provenance.html">MedComCareCommunicationProvenance</a></p></div><p>Provenance for <a href="MessageHeader-5c2cdf2c-bcbd-4c15-adce-6b862a84249c.html">MessageHeader: event[x] = Care Communication Message (MedComMessagingEventCodes#care-communication-message); definition = http://medcomfhir.dk/ig/messagedefinitions/MessageDefinition/MedComCareCommunicationMessageDefinition|5.0</a></p><p>Summary</p><table class="grid"><tr><td>Occurrence</td><td>2024-11-10 15:20:00+0100</td></tr><tr><td>Recorded</td><td>2024-11-10 15:20:00+0100</td></tr><tr><td>Activity</td><td><span title="Codes:{http://medcomfhir.dk/ig/terminology/CodeSystem/medcom-messaging-activityCodes new-message}">A new message has been sent</span></td></tr></table><p><b>Agents</b></p><table class="grid"><tr><td><b>who</b></td></tr><tr><td><a href="Organization-409b87d3-398e-44cb-9246-35b47ff75cc4.html">Organization Klinik for Ældresygdomme, AUH, Skejby</a></td></tr></table></div>
        </text>
        <target>
          <reference value="MessageHeader/5c2cdf2c-bcbd-4c15-adce-6b862a84249c"/>
        </target>
        <occurredDateTime value="2024-11-10T15:20:00+01:00"/>
        <recorded value="2024-11-10T15:20:00+01:00"/>
        <activity>
          <coding>
            <system value="http://medcomfhir.dk/ig/terminology/CodeSystem/medcom-messaging-activityCodes"/>
            <code value="new-message"/>
          </coding>
        </activity>
        <agent>
          <who>
            <reference value="Organization/409b87d3-398e-44cb-9246-35b47ff75cc4"/>
          </who>
        </agent>
        <entity>
          <role value="source"/>
          <what>
            <identifier>
              <value value="urn:uuid:6abbaeaf-0c35-4212-9fc2-48d7b520ac69"/>
            </identifier>
          </what>
        </entity>
      </Provenance>
    </resource>
  </entry>
</Bundle>