{
  "resourceType" : "Bundle",
  "id" : "S-Tek-C-new-7be9d2ba-6026-4f19-850c-896de206f2c2",
  "meta" : {
    "profile" : ["http://medcomfhir.dk/ig/carecommunication/StructureDefinition/medcom-careCommunication-message|5.0.1"]
  },
  "type" : "message",
  "timestamp" : "2024-08-12T11:30:00+02:00",
  "entry" : [{
    "fullUrl" : "https://medcomfhir.dk/ig/carecommunication/MessageHeader/f927c454-ef3e-4f60-9640-6727961d6a1f",
    "resource" : {
      "resourceType" : "MessageHeader",
      "id" : "f927c454-ef3e-4f60-9640-6727961d6a1f",
      "meta" : {
        "profile" : ["http://medcomfhir.dk/ig/carecommunication/StructureDefinition/medcom-careCommunication-messageHeader|5.0.1"]
      },
      "text" : {
        "status" : "generated",
        "div" : "<div xmlns=\"http://www.w3.org/1999/xhtml\"><a name=\"MessageHeader_f927c454-ef3e-4f60-9640-6727961d6a1f\"> </a><p class=\"res-header-id\"><b>Generated Narrative: MessageHeader f927c454-ef3e-4f60-9640-6727961d6a1f</b></p><a name=\"f927c454-ef3e-4f60-9640-6727961d6a1f\"> </a><a name=\"hcf927c454-ef3e-4f60-9640-6727961d6a1f\"> </a><div style=\"display: inline-block; background-color: #d9e0e7; padding: 6px; margin: 4px; border: 1px solid #8da1b4; border-radius: 5px; line-height: 60%\"><p style=\"margin-bottom: 0px\"/><p style=\"margin-bottom: 0px\">Profile: <a href=\"http://medcomfhir.dk/ig/carecommunication/5.0.1/StructureDefinition-medcom-careCommunication-messageHeader.html\">MedComCareCommunicationMessageHeaderversion: null5.0.1)</a></p></div><p><b>event</b>: <a href=\"http://medcomfhir.dk/ig/terminology/2.0.1/CodeSystem-medcom-messaging-eventCodes.html#medcom-messaging-eventCodes-care-communication-message\">MedComMessagingEventCodes care-communication-message</a>: Care Communication Message</p><h3>Destinations</h3><table class=\"grid\"><tr><td style=\"display: none\">-</td><td><b>Extension</b></td><td><b>Endpoint</b></td><td><b>Receiver</b></td></tr><tr><td style=\"display: none\">*</td><td/><td><a href=\"https://sor2.sum.dsdn.dk/#id=382871000016004\">https://sor2.sum.dsdn.dk/#id=382871000016004</a></td><td><a href=\"Organization-46037d39-bd84-4419-b132-fa9d9e9c6134.html\">Organization Arden Lægehus</a></td></tr></table><p><b>sender</b>: <a href=\"Organization-48038043-9a8c-402e-9828-2bb4f4b74d24.html\">Organization Hjerteafdelingen på Herlev og Gentofte hospital</a></p><h3>Sources</h3><table class=\"grid\"><tr><td style=\"display: none\">-</td><td><b>Endpoint</b></td></tr><tr><td style=\"display: none\">*</td><td><a href=\"https://sor2.sum.dsdn.dk/#id=265161000016000\">https://sor2.sum.dsdn.dk/#id=265161000016000</a></td></tr></table><p><b>focus</b>: <a href=\"Communication-aa5c8b0e-cfb9-4eb6-b1f1-7e96195d4042.html\">Communication: identifier = urn:uuid:18fa94f2-d40d-46a6-b50d-4086c8e184ad; status = unknown; category = Undersøgelsessvar; topic = </a></p><p><b>definition</b>: <a href=\"http://medcomfhir.dk/ig/messagedefinitions/1.0.0/MessageDefinition-MedComCareCommunicationMessageDefinitionV5.0.html\">http://medcomfhir.dk/ig/messagedefinitions/MessageDefinition/MedComCareCommunicationMessageDefinition|5.0</a></p></div>"
      },
      "eventCoding" : {
        "system" : "http://medcomfhir.dk/ig/terminology/CodeSystem/medcom-messaging-eventCodes",
        "code" : "care-communication-message"
      },
      "destination" : [{
        "extension" : [{
          "url" : "http://medcomfhir.dk/ig/messaging/StructureDefinition/medcom-messaging-destinationUseExtension",
          "valueCoding" : {
            "system" : "http://medcomfhir.dk/ig/terminology/CodeSystem/medcom-messaging-destinationUse",
            "code" : "primary"
          }
        }],
        "endpoint" : "https://sor2.sum.dsdn.dk/#id=382871000016004",
        "receiver" : {
          "reference" : "Organization/46037d39-bd84-4419-b132-fa9d9e9c6134"
        }
      }],
      "sender" : {
        "reference" : "Organization/48038043-9a8c-402e-9828-2bb4f4b74d24"
      },
      "source" : {
        "endpoint" : "https://sor2.sum.dsdn.dk/#id=265161000016000"
      },
      "focus" : [{
        "reference" : "Communication/aa5c8b0e-cfb9-4eb6-b1f1-7e96195d4042"
      }],
      "definition" : "http://medcomfhir.dk/ig/messagedefinitions/MessageDefinition/MedComCareCommunicationMessageDefinition|5.0"
    }
  },
  {
    "fullUrl" : "https://medcomfhir.dk/ig/carecommunication/Patient/0a709ba8-090b-4c03-8040-a23601d0b15a",
    "resource" : {
      "resourceType" : "Patient",
      "id" : "0a709ba8-090b-4c03-8040-a23601d0b15a",
      "meta" : {
        "profile" : ["http://medcomfhir.dk/ig/core/StructureDefinition/medcom-core-patient|3.0.1"]
      },
      "text" : {
        "status" : "generated",
        "div" : "<div xmlns=\"http://www.w3.org/1999/xhtml\"><a name=\"Patient_0a709ba8-090b-4c03-8040-a23601d0b15a\"> </a><p class=\"res-header-id\"><b>Generated Narrative: Patient 0a709ba8-090b-4c03-8040-a23601d0b15a</b></p><a name=\"0a709ba8-090b-4c03-8040-a23601d0b15a\"> </a><a name=\"hc0a709ba8-090b-4c03-8040-a23601d0b15a\"> </a><div style=\"display: inline-block; background-color: #d9e0e7; padding: 6px; margin: 4px; border: 1px solid #8da1b4; border-radius: 5px; line-height: 60%\"><p style=\"margin-bottom: 0px\"/><p style=\"margin-bottom: 0px\">Profile: <a href=\"http://medcomfhir.dk/ig/core/3.0.1/StructureDefinition-medcom-core-patient.html\">MedComCorePatientversion: null3.0.1)</a></p></div><p style=\"border: 1px #661aff solid; background-color: #e6e6ff; padding: 10px;\">Bruno Elmer (official) (no stated gender), DoB Unknown ( urn:oid:1.2.208.176.1.2#2509479989)</p><hr/></div>"
      },
      "identifier" : [{
        "system" : "urn:oid:1.2.208.176.1.2",
        "value" : "2509479989"
      }],
      "name" : [{
        "use" : "official",
        "family" : "Elmer",
        "given" : ["Bruno"]
      }]
    }
  },
  {
    "fullUrl" : "https://medcomfhir.dk/ig/carecommunication/Communication/aa5c8b0e-cfb9-4eb6-b1f1-7e96195d4042",
    "resource" : {
      "resourceType" : "Communication",
      "id" : "aa5c8b0e-cfb9-4eb6-b1f1-7e96195d4042",
      "meta" : {
        "profile" : ["http://medcomfhir.dk/ig/carecommunication/StructureDefinition/medcom-careCommunication-communication|5.0.1"]
      },
      "text" : {
        "status" : "extensions",
        "div" : "<div xmlns=\"http://www.w3.org/1999/xhtml\"><a name=\"Communication_aa5c8b0e-cfb9-4eb6-b1f1-7e96195d4042\"> </a><p class=\"res-header-id\"><b>Generated Narrative: Communication aa5c8b0e-cfb9-4eb6-b1f1-7e96195d4042</b></p><a name=\"aa5c8b0e-cfb9-4eb6-b1f1-7e96195d4042\"> </a><a name=\"hcaa5c8b0e-cfb9-4eb6-b1f1-7e96195d4042\"> </a><div style=\"display: inline-block; background-color: #d9e0e7; padding: 6px; margin: 4px; border: 1px solid #8da1b4; border-radius: 5px; line-height: 60%\"><p style=\"margin-bottom: 0px\"/><p style=\"margin-bottom: 0px\">Profile: <a href=\"http://medcomfhir.dk/ig/carecommunication/5.0.1/StructureDefinition-medcom-careCommunication-communication.html\">MedComCareCommunicationversion: null5.0.1)</a></p></div><p><b>identifier</b>: urn:uuid:18fa94f2-d40d-46a6-b50d-4086c8e184ad</p><p><b>status</b>: Unknown</p><p><b>category</b>: <span title=\"Codes:{http://medcomfhir.dk/ig/terminology/CodeSystem/medcom-careCommunication-categoryCodes examination-results}\">Undersøgelsessvar</span></p><p><b>subject</b>: <a href=\"Patient-0a709ba8-090b-4c03-8040-a23601d0b15a.html\">Bruno Elmer (official) (no stated gender), DoB Unknown ( urn:oid:1.2.208.176.1.2#2509479989)</a></p><p><b>topic</b>: <span title=\"Codes:\">Forespørgsel på seneste resultater</span></p><blockquote><p><b>payload</b></p><p><b>DateTimeExtension</b>: 2024-08-11 12:00:00+0200</p><p><b>IdentifierExtension</b>: urn:uuid:24d01288-ad36-4af2-96a8-fd1432dadee1</p><p><b>PractitionerExtension</b>: <a href=\"PractitionerRole-b86979d0-efb2-4728-a4de-fe2c7cea93fd.html\">PractitionerRole Sygeplejerske</a></p><p><b>ContactExtension</b>: ph: 38683868</p><p><b>content</b>: Til rette vedkommende. Vi ønsker information om de seneste undersøgelser udført på Bruno.\nPå forhånd tak.\nHilsen Michael Burns\nSygeplejerske</p></blockquote><blockquote><p><b>payload</b></p><p><b>DateTimeExtension</b>: 2024-08-12 11:30:00+0200</p><p><b>IdentifierExtension</b>: urn:uuid:ace97a0b-269f-4c67-a9e6-a5b7f20e160e</p><p><b>PractitionerExtension</b>: <a href=\"PractitionerRole-ad8bf8c0-6626-43cf-8d5a-1fa925c3c401.html\">PractitionerRole Sygeplejerske</a></p><p><b>ContactExtension</b>: ph: 44527000</p><p><b>content</b>: Hej Michael, Resultaterne for undersøgelsen kommer her. Blodtryk 130/95 mmHg, vægt: 83 kg og højde: 179 cm. Blodprøven påviste ikke tegn på sukkersyge eller vitaminmangel. Se mere i den vedhæftede pdf.\nMed venlig hilsen\nEmma Waters\nSygeplejerske</p></blockquote></div>"
      },
      "identifier" : [{
        "value" : "urn:uuid:18fa94f2-d40d-46a6-b50d-4086c8e184ad"
      }],
      "status" : "unknown",
      "category" : [{
        "coding" : [{
          "system" : "http://medcomfhir.dk/ig/terminology/CodeSystem/medcom-careCommunication-categoryCodes",
          "code" : "examination-results"
        }]
      }],
      "subject" : {
        "reference" : "Patient/0a709ba8-090b-4c03-8040-a23601d0b15a"
      },
      "topic" : {
        "text" : "Forespørgsel på seneste resultater"
      },
      "payload" : [{
        "extension" : [{
          "url" : "http://medcomfhir.dk/ig/core/StructureDefinition/medcom-core-datetime-extension",
          "valueDateTime" : "2024-08-11T12:00:00+02:00"
        },
        {
          "url" : "http://medcomfhir.dk/ig/core/StructureDefinition/medcom-core-identifier-extension",
          "valueIdentifier" : {
            "value" : "urn:uuid:24d01288-ad36-4af2-96a8-fd1432dadee1",
            "assigner" : {
              "reference" : "Organization/46037d39-bd84-4419-b132-fa9d9e9c6134"
            }
          }
        },
        {
          "url" : "http://medcomfhir.dk/ig/core/StructureDefinition/medcom-core-practitioner-extension",
          "valueReference" : {
            "reference" : "PractitionerRole/b86979d0-efb2-4728-a4de-fe2c7cea93fd"
          }
        },
        {
          "url" : "http://medcomfhir.dk/ig/core/StructureDefinition/medcom-core-contact-extension",
          "valueContactPoint" : {
            "system" : "phone",
            "value" : "38683868"
          }
        }],
        "contentString" : "Til rette vedkommende. Vi ønsker information om de seneste undersøgelser udført på Bruno.\nPå forhånd tak.\nHilsen Michael Burns\nSygeplejerske"
      },
      {
        "extension" : [{
          "url" : "http://medcomfhir.dk/ig/core/StructureDefinition/medcom-core-datetime-extension",
          "valueDateTime" : "2024-08-12T11:30:00+02:00"
        },
        {
          "url" : "http://medcomfhir.dk/ig/core/StructureDefinition/medcom-core-identifier-extension",
          "valueIdentifier" : {
            "value" : "urn:uuid:ace97a0b-269f-4c67-a9e6-a5b7f20e160e",
            "assigner" : {
              "reference" : "Organization/48038043-9a8c-402e-9828-2bb4f4b74d24"
            }
          }
        },
        {
          "url" : "http://medcomfhir.dk/ig/core/StructureDefinition/medcom-core-practitioner-extension",
          "valueReference" : {
            "reference" : "PractitionerRole/ad8bf8c0-6626-43cf-8d5a-1fa925c3c401"
          }
        },
        {
          "url" : "http://medcomfhir.dk/ig/core/StructureDefinition/medcom-core-contact-extension",
          "valueContactPoint" : {
            "system" : "phone",
            "value" : "44527000"
          }
        }],
        "contentString" : "Hej Michael, Resultaterne for undersøgelsen kommer her. Blodtryk 130/95 mmHg, vægt: 83 kg og højde: 179 cm. Blodprøven påviste ikke tegn på sukkersyge eller vitaminmangel. Se mere i den vedhæftede pdf.\nMed venlig hilsen\nEmma Waters\nSygeplejerske"
      }]
    }
  },
  {
    "fullUrl" : "https://medcomfhir.dk/ig/carecommunication/PractitionerRole/ad8bf8c0-6626-43cf-8d5a-1fa925c3c401",
    "resource" : {
      "resourceType" : "PractitionerRole",
      "id" : "ad8bf8c0-6626-43cf-8d5a-1fa925c3c401",
      "meta" : {
        "profile" : ["http://medcomfhir.dk/ig/core/StructureDefinition/medcom-core-practitionerrole|3.0.1"]
      },
      "text" : {
        "status" : "generated",
        "div" : "<div xmlns=\"http://www.w3.org/1999/xhtml\"><a name=\"PractitionerRole_ad8bf8c0-6626-43cf-8d5a-1fa925c3c401\"> </a><p class=\"res-header-id\"><b>Generated Narrative: PractitionerRole ad8bf8c0-6626-43cf-8d5a-1fa925c3c401</b></p><a name=\"ad8bf8c0-6626-43cf-8d5a-1fa925c3c401\"> </a><a name=\"hcad8bf8c0-6626-43cf-8d5a-1fa925c3c401\"> </a><div style=\"display: inline-block; background-color: #d9e0e7; padding: 6px; margin: 4px; border: 1px solid #8da1b4; border-radius: 5px; line-height: 60%\"><p style=\"margin-bottom: 0px\"/><p style=\"margin-bottom: 0px\">Profile: <a href=\"http://medcomfhir.dk/ig/core/3.0.1/StructureDefinition-medcom-core-practitionerrole.html\">MedComCorePractitionerRoleversion: null3.0.1)</a></p></div><p><b>practitioner</b>: <a href=\"Practitioner-27162d09-991e-49af-b7f4-ca8e1a047f29.html\">Practitioner Emma Waters </a></p><p><b>code</b>: <span title=\"Codes:{http://medcomfhir.dk/ig/terminology/CodeSystem/medcom-core-PractitionerRolesSKSadministrativ sygeplejerske}\">Sygeplejerske</span></p></div>"
      },
      "practitioner" : {
        "reference" : "Practitioner/27162d09-991e-49af-b7f4-ca8e1a047f29"
      },
      "code" : [{
        "coding" : [{
          "system" : "http://medcomfhir.dk/ig/terminology/CodeSystem/medcom-core-PractitionerRolesSKSadministrativ",
          "code" : "sygeplejerske"
        }]
      }]
    }
  },
  {
    "fullUrl" : "https://medcomfhir.dk/ig/carecommunication/Practitioner/27162d09-991e-49af-b7f4-ca8e1a047f29",
    "resource" : {
      "resourceType" : "Practitioner",
      "id" : "27162d09-991e-49af-b7f4-ca8e1a047f29",
      "meta" : {
        "profile" : ["http://medcomfhir.dk/ig/core/StructureDefinition/medcom-core-practitioner|3.0.1"]
      },
      "text" : {
        "status" : "generated",
        "div" : "<div xmlns=\"http://www.w3.org/1999/xhtml\"><a name=\"Practitioner_27162d09-991e-49af-b7f4-ca8e1a047f29\"> </a><p class=\"res-header-id\"><b>Generated Narrative: Practitioner 27162d09-991e-49af-b7f4-ca8e1a047f29</b></p><a name=\"27162d09-991e-49af-b7f4-ca8e1a047f29\"> </a><a name=\"hc27162d09-991e-49af-b7f4-ca8e1a047f29\"> </a><div style=\"display: inline-block; background-color: #d9e0e7; padding: 6px; margin: 4px; border: 1px solid #8da1b4; border-radius: 5px; line-height: 60%\"><p style=\"margin-bottom: 0px\"/><p style=\"margin-bottom: 0px\">Profile: <a href=\"http://medcomfhir.dk/ig/core/3.0.1/StructureDefinition-medcom-core-practitioner.html\">MedComCorePractitionerversion: null3.0.1)</a></p></div><p><b>name</b>: Emma Waters </p></div>"
      },
      "name" : [{
        "family" : "Waters",
        "given" : ["Emma"]
      }]
    }
  },
  {
    "fullUrl" : "https://medcomfhir.dk/ig/carecommunication/Practitioner/9583c018-8e84-4729-9ac0-8c887b4e6c5e",
    "resource" : {
      "resourceType" : "Practitioner",
      "id" : "9583c018-8e84-4729-9ac0-8c887b4e6c5e",
      "meta" : {
        "profile" : ["http://medcomfhir.dk/ig/core/StructureDefinition/medcom-core-practitioner|3.0.1"]
      },
      "text" : {
        "status" : "generated",
        "div" : "<div xmlns=\"http://www.w3.org/1999/xhtml\"><a name=\"Practitioner_9583c018-8e84-4729-9ac0-8c887b4e6c5e\"> </a><p class=\"res-header-id\"><b>Generated Narrative: Practitioner 9583c018-8e84-4729-9ac0-8c887b4e6c5e</b></p><a name=\"9583c018-8e84-4729-9ac0-8c887b4e6c5e\"> </a><a name=\"hc9583c018-8e84-4729-9ac0-8c887b4e6c5e\"> </a><div style=\"display: inline-block; background-color: #d9e0e7; padding: 6px; margin: 4px; border: 1px solid #8da1b4; border-radius: 5px; line-height: 60%\"><p style=\"margin-bottom: 0px\"/><p style=\"margin-bottom: 0px\">Profile: <a href=\"http://medcomfhir.dk/ig/core/3.0.1/StructureDefinition-medcom-core-practitioner.html\">MedComCorePractitionerversion: null3.0.1)</a></p></div><p><b>name</b>: Michael Burns </p></div>"
      },
      "name" : [{
        "family" : "Burns",
        "given" : ["Michael"]
      }]
    }
  },
  {
    "fullUrl" : "https://medcomfhir.dk/ig/carecommunication/PractitionerRole/b86979d0-efb2-4728-a4de-fe2c7cea93fd",
    "resource" : {
      "resourceType" : "PractitionerRole",
      "id" : "b86979d0-efb2-4728-a4de-fe2c7cea93fd",
      "meta" : {
        "profile" : ["http://medcomfhir.dk/ig/core/StructureDefinition/medcom-core-practitionerrole|3.0.1"]
      },
      "text" : {
        "status" : "generated",
        "div" : "<div xmlns=\"http://www.w3.org/1999/xhtml\"><a name=\"PractitionerRole_b86979d0-efb2-4728-a4de-fe2c7cea93fd\"> </a><p class=\"res-header-id\"><b>Generated Narrative: PractitionerRole b86979d0-efb2-4728-a4de-fe2c7cea93fd</b></p><a name=\"b86979d0-efb2-4728-a4de-fe2c7cea93fd\"> </a><a name=\"hcb86979d0-efb2-4728-a4de-fe2c7cea93fd\"> </a><div style=\"display: inline-block; background-color: #d9e0e7; padding: 6px; margin: 4px; border: 1px solid #8da1b4; border-radius: 5px; line-height: 60%\"><p style=\"margin-bottom: 0px\"/><p style=\"margin-bottom: 0px\">Profile: <a href=\"http://medcomfhir.dk/ig/core/3.0.1/StructureDefinition-medcom-core-practitionerrole.html\">MedComCorePractitionerRoleversion: null3.0.1)</a></p></div><p><b>practitioner</b>: <a href=\"Practitioner-9583c018-8e84-4729-9ac0-8c887b4e6c5e.html\">Practitioner Michael Burns </a></p><p><b>code</b>: <span title=\"Codes:{http://medcomfhir.dk/ig/terminology/CodeSystem/medcom-core-PractitionerRolesSKSadministrativ sygeplejerske}\">Sygeplejerske</span></p></div>"
      },
      "practitioner" : {
        "reference" : "Practitioner/9583c018-8e84-4729-9ac0-8c887b4e6c5e"
      },
      "code" : [{
        "coding" : [{
          "system" : "http://medcomfhir.dk/ig/terminology/CodeSystem/medcom-core-PractitionerRolesSKSadministrativ",
          "code" : "sygeplejerske"
        }]
      }]
    }
  },
  {
    "fullUrl" : "https://medcomfhir.dk/ig/carecommunication/Organization/48038043-9a8c-402e-9828-2bb4f4b74d24",
    "resource" : {
      "resourceType" : "Organization",
      "id" : "48038043-9a8c-402e-9828-2bb4f4b74d24",
      "meta" : {
        "profile" : ["http://medcomfhir.dk/ig/messaging/StructureDefinition/medcom-messaging-organization|4.0.1"]
      },
      "text" : {
        "status" : "generated",
        "div" : "<div xmlns=\"http://www.w3.org/1999/xhtml\"><a name=\"Organization_48038043-9a8c-402e-9828-2bb4f4b74d24\"> </a><p class=\"res-header-id\"><b>Generated Narrative: Organization 48038043-9a8c-402e-9828-2bb4f4b74d24</b></p><a name=\"48038043-9a8c-402e-9828-2bb4f4b74d24\"> </a><a name=\"hc48038043-9a8c-402e-9828-2bb4f4b74d24\"> </a><div style=\"display: inline-block; background-color: #d9e0e7; padding: 6px; margin: 4px; border: 1px solid #8da1b4; border-radius: 5px; line-height: 60%\"><p style=\"margin-bottom: 0px\"/><p style=\"margin-bottom: 0px\">Profile: <a href=\"http://medcomfhir.dk/ig/messaging/4.0.1/StructureDefinition-medcom-messaging-organization.html\">MedComMessagingOrganizationversion: null4.0.1)</a></p></div><p><b>identifier</b>: <code>https://www.gs1.org/gln</code>/5790000209354, <code>urn:oid:1.2.208.176.1.1</code>/265161000016000</p><p><b>name</b>: Hjerteafdelingen på Herlev og Gentofte hospital</p></div>"
      },
      "identifier" : [{
        "system" : "https://www.gs1.org/gln",
        "value" : "5790000209354"
      },
      {
        "system" : "urn:oid:1.2.208.176.1.1",
        "value" : "265161000016000"
      }],
      "name" : "Hjerteafdelingen på Herlev og Gentofte hospital"
    }
  },
  {
    "fullUrl" : "https://medcomfhir.dk/ig/carecommunication/Organization/46037d39-bd84-4419-b132-fa9d9e9c6134",
    "resource" : {
      "resourceType" : "Organization",
      "id" : "46037d39-bd84-4419-b132-fa9d9e9c6134",
      "meta" : {
        "profile" : ["http://medcomfhir.dk/ig/messaging/StructureDefinition/medcom-messaging-organization|4.0.1"]
      },
      "text" : {
        "status" : "generated",
        "div" : "<div xmlns=\"http://www.w3.org/1999/xhtml\"><a name=\"Organization_46037d39-bd84-4419-b132-fa9d9e9c6134\"> </a><p class=\"res-header-id\"><b>Generated Narrative: Organization 46037d39-bd84-4419-b132-fa9d9e9c6134</b></p><a name=\"46037d39-bd84-4419-b132-fa9d9e9c6134\"> </a><a name=\"hc46037d39-bd84-4419-b132-fa9d9e9c6134\"> </a><div style=\"display: inline-block; background-color: #d9e0e7; padding: 6px; margin: 4px; border: 1px solid #8da1b4; border-radius: 5px; line-height: 60%\"><p style=\"margin-bottom: 0px\"/><p style=\"margin-bottom: 0px\">Profile: <a href=\"http://medcomfhir.dk/ig/messaging/4.0.1/StructureDefinition-medcom-messaging-organization.html\">MedComMessagingOrganizationversion: null4.0.1)</a></p></div><p><b>identifier</b>: <code>https://www.gs1.org/gln</code>/5790001387419, <code>urn:oid:1.2.208.176.1.1</code>/382871000016004</p><p><b>name</b>: Arden Lægehus</p></div>"
      },
      "identifier" : [{
        "system" : "https://www.gs1.org/gln",
        "value" : "5790001387419"
      },
      {
        "system" : "urn:oid:1.2.208.176.1.1",
        "value" : "382871000016004"
      }],
      "name" : "Arden Lægehus"
    }
  },
  {
    "fullUrl" : "https://medcomfhir.dk/ig/carecommunication/Provenance/eb27c278-6dab-4c0f-bed2-8b882e3977c1",
    "resource" : {
      "resourceType" : "Provenance",
      "id" : "eb27c278-6dab-4c0f-bed2-8b882e3977c1",
      "meta" : {
        "profile" : ["http://medcomfhir.dk/ig/carecommunication/StructureDefinition/medcom-careCommunication-provenance"]
      },
      "text" : {
        "status" : "generated",
        "div" : "<div xmlns=\"http://www.w3.org/1999/xhtml\"><a name=\"Provenance_eb27c278-6dab-4c0f-bed2-8b882e3977c1\"> </a><p class=\"res-header-id\"><b>Generated Narrative: Provenance eb27c278-6dab-4c0f-bed2-8b882e3977c1</b></p><a name=\"eb27c278-6dab-4c0f-bed2-8b882e3977c1\"> </a><a name=\"hceb27c278-6dab-4c0f-bed2-8b882e3977c1\"> </a><div style=\"display: inline-block; background-color: #d9e0e7; padding: 6px; margin: 4px; border: 1px solid #8da1b4; border-radius: 5px; line-height: 60%\"><p style=\"margin-bottom: 0px\"/><p style=\"margin-bottom: 0px\">Profile: <a href=\"http://medcomfhir.dk/ig/carecommunication/5.0.1/StructureDefinition-medcom-careCommunication-provenance.html\">MedComCareCommunicationProvenance</a></p></div><p>Provenance for <a href=\"MessageHeader-f927c454-ef3e-4f60-9640-6727961d6a1f.html\">MessageHeader: event[x] = Care Communication Message (MedComMessagingEventCodes#care-communication-message); definition = http://medcomfhir.dk/ig/messagedefinitions/MessageDefinition/MedComCareCommunicationMessageDefinition|5.0</a></p><p>Summary</p><table class=\"grid\"><tr><td>Occurrence</td><td>2024-08-12 11:30:00+0200</td></tr><tr><td>Recorded</td><td>2024-08-12 11:30:00+0200</td></tr><tr><td>Activity</td><td><span title=\"Codes:{http://medcomfhir.dk/ig/terminology/CodeSystem/medcom-messaging-activityCodes reply-message}\">A message has been replied to</span></td></tr></table><p><b>Agents</b></p><table class=\"grid\"><tr><td><b>who</b></td></tr><tr><td><a href=\"Organization-48038043-9a8c-402e-9828-2bb4f4b74d24.html\">Organization Hjerteafdelingen på Herlev og Gentofte hospital</a></td></tr></table></div>"
      },
      "target" : [{
        "reference" : "MessageHeader/f927c454-ef3e-4f60-9640-6727961d6a1f"
      }],
      "occurredDateTime" : "2024-08-12T11:30:00+02:00",
      "recorded" : "2024-08-12T11:30:00+02:00",
      "activity" : {
        "coding" : [{
          "system" : "http://medcomfhir.dk/ig/terminology/CodeSystem/medcom-messaging-activityCodes",
          "code" : "reply-message"
        }]
      },
      "agent" : [{
        "who" : {
          "reference" : "Organization/48038043-9a8c-402e-9828-2bb4f4b74d24"
        }
      }],
      "entity" : [{
        "role" : "source",
        "what" : {
          "identifier" : {
            "value" : "urn:uuid:231b0921-59b4-474c-8ca8-aee33611d140"
          }
        }
      },
      {
        "role" : "revision",
        "what" : {
          "reference" : "MessageHeader/0ebb6284-eb20-45eb-8113-6620d2d08608"
        }
      },
      {
        "role" : "source",
        "what" : {
          "identifier" : {
            "value" : "urn:uuid:ace97a0b-269f-4c67-a9e6-a5b7f20e160e"
          }
        }
      }]
    }
  },
  {
    "fullUrl" : "https://medcomfhir.dk/ig/carecommunication/Provenance/fd770a95-af42-4545-886d-729d7edfa23a",
    "resource" : {
      "resourceType" : "Provenance",
      "id" : "fd770a95-af42-4545-886d-729d7edfa23a",
      "meta" : {
        "profile" : ["http://medcomfhir.dk/ig/carecommunication/StructureDefinition/medcom-careCommunication-provenance"]
      },
      "text" : {
        "status" : "generated",
        "div" : "<div xmlns=\"http://www.w3.org/1999/xhtml\"><a name=\"Provenance_fd770a95-af42-4545-886d-729d7edfa23a\"> </a><p class=\"res-header-id\"><b>Generated Narrative: Provenance fd770a95-af42-4545-886d-729d7edfa23a</b></p><a name=\"fd770a95-af42-4545-886d-729d7edfa23a\"> </a><a name=\"hcfd770a95-af42-4545-886d-729d7edfa23a\"> </a><div style=\"display: inline-block; background-color: #d9e0e7; padding: 6px; margin: 4px; border: 1px solid #8da1b4; border-radius: 5px; line-height: 60%\"><p style=\"margin-bottom: 0px\"/><p style=\"margin-bottom: 0px\">Profile: <a href=\"http://medcomfhir.dk/ig/carecommunication/5.0.1/StructureDefinition-medcom-careCommunication-provenance.html\">MedComCareCommunicationProvenance</a></p></div><p>Provenance for <a href=\"MessageHeader-0ebb6284-eb20-45eb-8113-6620d2d08608.html\">MessageHeader: event[x] = Care Communication Message (MedComMessagingEventCodes#care-communication-message); definition = http://medcomfhir.dk/ig/messagedefinitions/MessageDefinition/MedComCareCommunicationMessageDefinition|5.0</a></p><p>Summary</p><table class=\"grid\"><tr><td>Occurrence</td><td>2024-08-11 12:00:00+0200</td></tr><tr><td>Recorded</td><td>2024-08-11 12:00:00+0200</td></tr><tr><td>Activity</td><td><span title=\"Codes:{http://medcomfhir.dk/ig/terminology/CodeSystem/medcom-messaging-activityCodes new-message}\">A new message has been sent</span></td></tr></table><p><b>Agents</b></p><table class=\"grid\"><tr><td><b>who</b></td></tr><tr><td><a href=\"Organization-46037d39-bd84-4419-b132-fa9d9e9c6134.html\">Organization Arden Lægehus</a></td></tr></table></div>"
      },
      "target" : [{
        "reference" : "MessageHeader/0ebb6284-eb20-45eb-8113-6620d2d08608"
      }],
      "occurredDateTime" : "2024-08-11T12:00:00+02:00",
      "recorded" : "2024-08-11T12:00:00+02:00",
      "activity" : {
        "coding" : [{
          "system" : "http://medcomfhir.dk/ig/terminology/CodeSystem/medcom-messaging-activityCodes",
          "code" : "new-message"
        }]
      },
      "agent" : [{
        "who" : {
          "reference" : "Organization/46037d39-bd84-4419-b132-fa9d9e9c6134"
        }
      }],
      "entity" : [{
        "role" : "source",
        "what" : {
          "identifier" : {
            "value" : "urn:uuid:24d01288-ad36-4af2-96a8-fd1432dadee1"
          }
        }
      }]
    }
  }]
}