<?xml version="1.0" encoding="UTF-8"?>

<Bundle xmlns="http://hl7.org/fhir">
  <id value="R-Tek-E-new-parallel-c1edf6f3-2554-4b72-b58b-0f030ee555ba"/>
  <meta>
    <profile value="http://medcomfhir.dk/ig/carecommunication/StructureDefinition/medcom-careCommunication-message|5.0.1"/>
  </meta>
  <type value="message"/>
  <timestamp value="2024-08-21T12:00:00+02:00"/>
  <entry>
    <fullUrl value="https://medcomfhir.dk/ig/carecommunication/MessageHeader/9db30fd5-f443-4c7f-8e1a-e8da7e758f0a"/>
    <resource>
      <MessageHeader>
        <id value="9db30fd5-f443-4c7f-8e1a-e8da7e758f0a"/>
        <meta>
          <profile value="http://medcomfhir.dk/ig/carecommunication/StructureDefinition/medcom-careCommunication-messageHeader|5.0.1"/>
        </meta>
        <text>
          <status value="generated"/><div xmlns="http://www.w3.org/1999/xhtml"><a name="MessageHeader_9db30fd5-f443-4c7f-8e1a-e8da7e758f0a"> </a><p class="res-header-id"><b>Generated Narrative: MessageHeader 9db30fd5-f443-4c7f-8e1a-e8da7e758f0a</b></p><a name="9db30fd5-f443-4c7f-8e1a-e8da7e758f0a"> </a><a name="hc9db30fd5-f443-4c7f-8e1a-e8da7e758f0a"> </a><div style="display: inline-block; background-color: #d9e0e7; padding: 6px; margin: 4px; border: 1px solid #8da1b4; border-radius: 5px; line-height: 60%"><p style="margin-bottom: 0px"/><p style="margin-bottom: 0px">Profile: <a href="http://medcomfhir.dk/ig/carecommunication/5.0.1/StructureDefinition-medcom-careCommunication-messageHeader.html">MedComCareCommunicationMessageHeaderversion: null5.0.1)</a></p></div><p><b>event</b>: <a href="http://medcomfhir.dk/ig/terminology/2.0.1/CodeSystem-medcom-messaging-eventCodes.html#medcom-messaging-eventCodes-care-communication-message">MedComMessagingEventCodes care-communication-message</a>: Care Communication Message</p><h3>Destinations</h3><table class="grid"><tr><td style="display: none">-</td><td><b>Extension</b></td><td><b>Endpoint</b></td><td><b>Receiver</b></td></tr><tr><td style="display: none">*</td><td/><td><a href="https://sor2.sum.dsdn.dk/#id=382871000016004">https://sor2.sum.dsdn.dk/#id=382871000016004</a></td><td><a href="Organization-b349d429-8041-485c-b0ba-e08b2ed8bfd7.html">Organization Arden Lægehus</a></td></tr></table><p><b>sender</b>: <a href="Organization-e6dd7d8c-5744-440a-8347-d932a8f65a6b.html">Organization Hjerteafdelingen på Herlev og Gentofte hospital</a></p><h3>Sources</h3><table class="grid"><tr><td style="display: none">-</td><td><b>Endpoint</b></td></tr><tr><td style="display: none">*</td><td><a href="https://sor2.sum.dsdn.dk/#id=265161000016000">https://sor2.sum.dsdn.dk/#id=265161000016000</a></td></tr></table><p><b>focus</b>: <a href="Communication-726561c2-b521-4c0e-bff7-d9cbe9153a4c.html">Communication: identifier = urn:uuid:1b1cf143-519a-44f9-b471-05f34fce0670; status = unknown; category = Sygepleje; topic = </a></p><p><b>definition</b>: <a href="http://medcomfhir.dk/ig/messagedefinitions/1.0.0/MessageDefinition-MedComCareCommunicationMessageDefinitionV5.0.html">http://medcomfhir.dk/ig/messagedefinitions/MessageDefinition/MedComCareCommunicationMessageDefinition|5.0</a></p></div>
        </text>
        <eventCoding>
          <system value="http://medcomfhir.dk/ig/terminology/CodeSystem/medcom-messaging-eventCodes"/>
          <code value="care-communication-message"/>
        </eventCoding>
        <destination>
          <extension url="http://medcomfhir.dk/ig/messaging/StructureDefinition/medcom-messaging-destinationUseExtension">
            <valueCoding>
              <system value="http://medcomfhir.dk/ig/terminology/CodeSystem/medcom-messaging-destinationUse"/>
              <code value="primary"/>
            </valueCoding>
          </extension>
          <endpoint value="https://sor2.sum.dsdn.dk/#id=382871000016004"/>
          <receiver>
            <reference value="Organization/b349d429-8041-485c-b0ba-e08b2ed8bfd7"/>
          </receiver>
        </destination>
        <sender>
          <reference value="Organization/e6dd7d8c-5744-440a-8347-d932a8f65a6b"/>
        </sender>
        <source>
          <endpoint value="https://sor2.sum.dsdn.dk/#id=265161000016000"/>
        </source>
        <focus>
          <reference value="Communication/726561c2-b521-4c0e-bff7-d9cbe9153a4c"/>
        </focus>
        <definition value="http://medcomfhir.dk/ig/messagedefinitions/MessageDefinition/MedComCareCommunicationMessageDefinition|5.0"/>
      </MessageHeader>
    </resource>
  </entry>
  <entry>
    <fullUrl value="https://medcomfhir.dk/ig/carecommunication/Patient/d4344858-bd8f-42fb-9f84-50b2b66a5ed1"/>
    <resource>
      <Patient>
        <id value="d4344858-bd8f-42fb-9f84-50b2b66a5ed1"/>
        <meta>
          <profile value="http://medcomfhir.dk/ig/core/StructureDefinition/medcom-core-patient|3.0.1"/>
        </meta>
        <text>
          <status value="generated"/><div xmlns="http://www.w3.org/1999/xhtml"><a name="Patient_d4344858-bd8f-42fb-9f84-50b2b66a5ed1"> </a><p class="res-header-id"><b>Generated Narrative: Patient d4344858-bd8f-42fb-9f84-50b2b66a5ed1</b></p><a name="d4344858-bd8f-42fb-9f84-50b2b66a5ed1"> </a><a name="hcd4344858-bd8f-42fb-9f84-50b2b66a5ed1"> </a><div style="display: inline-block; background-color: #d9e0e7; padding: 6px; margin: 4px; border: 1px solid #8da1b4; border-radius: 5px; line-height: 60%"><p style="margin-bottom: 0px"/><p style="margin-bottom: 0px">Profile: <a href="http://medcomfhir.dk/ig/core/3.0.1/StructureDefinition-medcom-core-patient.html">MedComCorePatientversion: null3.0.1)</a></p></div><p style="border: 1px #661aff solid; background-color: #e6e6ff; padding: 10px;">Bruno Elmer (official) (no stated gender), DoB Unknown ( urn:oid:1.2.208.176.1.2#2509479989)</p><hr/></div>
        </text>
        <identifier>
          <system value="urn:oid:1.2.208.176.1.2"/>
          <value value="2509479989"/>
        </identifier>
        <name>
          <use value="official"/>
          <family value="Elmer"/>
          <given value="Bruno"/>
        </name>
      </Patient>
    </resource>
  </entry>
  <entry>
    <fullUrl value="https://medcomfhir.dk/ig/carecommunication/Communication/726561c2-b521-4c0e-bff7-d9cbe9153a4c"/>
    <resource>
      <Communication>
        <id value="726561c2-b521-4c0e-bff7-d9cbe9153a4c"/>
        <meta>
          <profile value="http://medcomfhir.dk/ig/carecommunication/StructureDefinition/medcom-careCommunication-communication|5.0.1"/>
        </meta>
        <text>
          <status value="extensions"/><div xmlns="http://www.w3.org/1999/xhtml"><a name="Communication_726561c2-b521-4c0e-bff7-d9cbe9153a4c"> </a><p class="res-header-id"><b>Generated Narrative: Communication 726561c2-b521-4c0e-bff7-d9cbe9153a4c</b></p><a name="726561c2-b521-4c0e-bff7-d9cbe9153a4c"> </a><a name="hc726561c2-b521-4c0e-bff7-d9cbe9153a4c"> </a><div style="display: inline-block; background-color: #d9e0e7; padding: 6px; margin: 4px; border: 1px solid #8da1b4; border-radius: 5px; line-height: 60%"><p style="margin-bottom: 0px"/><p style="margin-bottom: 0px">Profile: <a href="http://medcomfhir.dk/ig/carecommunication/5.0.1/StructureDefinition-medcom-careCommunication-communication.html">MedComCareCommunicationversion: null5.0.1)</a></p></div><p><b>identifier</b>: urn:uuid:1b1cf143-519a-44f9-b471-05f34fce0670</p><p><b>status</b>: Unknown</p><p><b>category</b>: <span title="Codes:{http://medcomfhir.dk/ig/terminology/CodeSystem/medcom-careCommunication-categoryCodes nursing}">Sygepleje</span></p><p><b>subject</b>: <a href="Patient-d4344858-bd8f-42fb-9f84-50b2b66a5ed1.html">Bruno Elmer (official) (no stated gender), DoB Unknown ( urn:oid:1.2.208.176.1.2#2509479989)</a></p><p><b>topic</b>: <span title="Codes:">Forspørgsel på seneste resultater</span></p><blockquote><p><b>payload</b></p><p><b>DateTimeExtension</b>: 2024-08-21 12:00:00+0200</p><p><b>IdentifierExtension</b>: urn:uuid:71a92aba-ee31-4ccf-86ed-3d6b823f4c67</p><p><b>PractitionerExtension</b>: <a href="PractitionerRole-704020b9-44ea-4454-bbf8-e892d42d2149.html">PractitionerRole Sygeplejerske</a></p><p><b>ContactExtension</b>: ph: 38683868</p><p><b>content</b>: Til rette vedkommende. Vi ønsker information om de seneste undersøgelser udført på Bruno. På forhånd tak.
Hilsen Michael Burns
Sygeplejerske</p></blockquote></div>
        </text>
        <identifier>
          <value value="urn:uuid:1b1cf143-519a-44f9-b471-05f34fce0670"/>
        </identifier>
        <status value="unknown"/>
        <category>
          <coding>
            <system value="http://medcomfhir.dk/ig/terminology/CodeSystem/medcom-careCommunication-categoryCodes"/>
            <code value="nursing"/>
          </coding>
        </category>
        <subject>
          <reference value="Patient/d4344858-bd8f-42fb-9f84-50b2b66a5ed1"/>
        </subject>
        <topic>
          <text value="Forspørgsel på seneste resultater"/>
        </topic>
        <payload>
          <extension url="http://medcomfhir.dk/ig/core/StructureDefinition/medcom-core-datetime-extension">
            <valueDateTime value="2024-08-21T12:00:00+02:00"/>
          </extension>
          <extension url="http://medcomfhir.dk/ig/core/StructureDefinition/medcom-core-identifier-extension">
            <valueIdentifier>
              <value value="urn:uuid:71a92aba-ee31-4ccf-86ed-3d6b823f4c67"/>
              <assigner>
                <reference value="Organization/e6dd7d8c-5744-440a-8347-d932a8f65a6b"/>
              </assigner>
            </valueIdentifier>
          </extension>
          <extension url="http://medcomfhir.dk/ig/core/StructureDefinition/medcom-core-practitioner-extension">
            <valueReference>
              <reference value="PractitionerRole/704020b9-44ea-4454-bbf8-e892d42d2149"/>
            </valueReference>
          </extension>
          <extension url="http://medcomfhir.dk/ig/core/StructureDefinition/medcom-core-contact-extension">
            <valueContactPoint>
              <system value="phone"/>
              <value value="38683868"/>
            </valueContactPoint>
          </extension>
          <contentString value="Til rette vedkommende. Vi ønsker information om de seneste undersøgelser udført på Bruno. På forhånd tak.&#xA;Hilsen Michael Burns&#xA;Sygeplejerske"/>
        </payload>
      </Communication>
    </resource>
  </entry>
  <entry>
    <fullUrl value="https://medcomfhir.dk/ig/carecommunication/PractitionerRole/704020b9-44ea-4454-bbf8-e892d42d2149"/>
    <resource>
      <PractitionerRole>
        <id value="704020b9-44ea-4454-bbf8-e892d42d2149"/>
        <meta>
          <profile value="http://medcomfhir.dk/ig/core/StructureDefinition/medcom-core-practitionerrole|3.0.1"/>
        </meta>
        <text>
          <status value="generated"/><div xmlns="http://www.w3.org/1999/xhtml"><a name="PractitionerRole_704020b9-44ea-4454-bbf8-e892d42d2149"> </a><p class="res-header-id"><b>Generated Narrative: PractitionerRole 704020b9-44ea-4454-bbf8-e892d42d2149</b></p><a name="704020b9-44ea-4454-bbf8-e892d42d2149"> </a><a name="hc704020b9-44ea-4454-bbf8-e892d42d2149"> </a><div style="display: inline-block; background-color: #d9e0e7; padding: 6px; margin: 4px; border: 1px solid #8da1b4; border-radius: 5px; line-height: 60%"><p style="margin-bottom: 0px"/><p style="margin-bottom: 0px">Profile: <a href="http://medcomfhir.dk/ig/core/3.0.1/StructureDefinition-medcom-core-practitionerrole.html">MedComCorePractitionerRoleversion: null3.0.1)</a></p></div><p><b>practitioner</b>: <a href="Practitioner-e169f935-8fe2-4821-8fbf-b0324a8975e3.html">Practitioner Michael Burns </a></p><p><b>code</b>: <span title="Codes:{http://medcomfhir.dk/ig/terminology/CodeSystem/medcom-core-PractitionerRolesSKSadministrativ sygeplejerske}">Sygeplejerske</span></p></div>
        </text>
        <practitioner>
          <reference value="Practitioner/e169f935-8fe2-4821-8fbf-b0324a8975e3"/>
        </practitioner>
        <code>
          <coding>
            <system value="http://medcomfhir.dk/ig/terminology/CodeSystem/medcom-core-PractitionerRolesSKSadministrativ"/>
            <code value="sygeplejerske"/>
          </coding>
        </code>
      </PractitionerRole>
    </resource>
  </entry>
  <entry>
    <fullUrl value="https://medcomfhir.dk/ig/carecommunication/Practitioner/e169f935-8fe2-4821-8fbf-b0324a8975e3"/>
    <resource>
      <Practitioner>
        <id value="e169f935-8fe2-4821-8fbf-b0324a8975e3"/>
        <meta>
          <profile value="http://medcomfhir.dk/ig/core/StructureDefinition/medcom-core-practitioner|3.0.1"/>
        </meta>
        <text>
          <status value="generated"/><div xmlns="http://www.w3.org/1999/xhtml"><a name="Practitioner_e169f935-8fe2-4821-8fbf-b0324a8975e3"> </a><p class="res-header-id"><b>Generated Narrative: Practitioner e169f935-8fe2-4821-8fbf-b0324a8975e3</b></p><a name="e169f935-8fe2-4821-8fbf-b0324a8975e3"> </a><a name="hce169f935-8fe2-4821-8fbf-b0324a8975e3"> </a><div style="display: inline-block; background-color: #d9e0e7; padding: 6px; margin: 4px; border: 1px solid #8da1b4; border-radius: 5px; line-height: 60%"><p style="margin-bottom: 0px"/><p style="margin-bottom: 0px">Profile: <a href="http://medcomfhir.dk/ig/core/3.0.1/StructureDefinition-medcom-core-practitioner.html">MedComCorePractitionerversion: null3.0.1)</a></p></div><p><b>name</b>: Michael Burns </p></div>
        </text>
        <name>
          <family value="Burns"/>
          <given value="Michael"/>
        </name>
      </Practitioner>
    </resource>
  </entry>
  <entry>
    <fullUrl value="https://medcomfhir.dk/ig/carecommunication/Organization/b349d429-8041-485c-b0ba-e08b2ed8bfd7"/>
    <resource>
      <Organization>
        <id value="b349d429-8041-485c-b0ba-e08b2ed8bfd7"/>
        <meta>
          <profile value="http://medcomfhir.dk/ig/messaging/StructureDefinition/medcom-messaging-organization|4.0.1"/>
        </meta>
        <text>
          <status value="generated"/><div xmlns="http://www.w3.org/1999/xhtml"><a name="Organization_b349d429-8041-485c-b0ba-e08b2ed8bfd7"> </a><p class="res-header-id"><b>Generated Narrative: Organization b349d429-8041-485c-b0ba-e08b2ed8bfd7</b></p><a name="b349d429-8041-485c-b0ba-e08b2ed8bfd7"> </a><a name="hcb349d429-8041-485c-b0ba-e08b2ed8bfd7"> </a><div style="display: inline-block; background-color: #d9e0e7; padding: 6px; margin: 4px; border: 1px solid #8da1b4; border-radius: 5px; line-height: 60%"><p style="margin-bottom: 0px"/><p style="margin-bottom: 0px">Profile: <a href="http://medcomfhir.dk/ig/messaging/4.0.1/StructureDefinition-medcom-messaging-organization.html">MedComMessagingOrganizationversion: null4.0.1)</a></p></div><p><b>identifier</b>: <code>https://www.gs1.org/gln</code>/5790001387419, <code>urn:oid:1.2.208.176.1.1</code>/382871000016004</p><p><b>name</b>: Arden Lægehus</p></div>
        </text>
        <identifier>
          <system value="https://www.gs1.org/gln"/>
          <value value="5790001387419"/>
        </identifier>
        <identifier>
          <system value="urn:oid:1.2.208.176.1.1"/>
          <value value="382871000016004"/>
        </identifier>
        <name value="Arden Lægehus"/>
      </Organization>
    </resource>
  </entry>
  <entry>
    <fullUrl value="https://medcomfhir.dk/ig/carecommunication/Organization/e6dd7d8c-5744-440a-8347-d932a8f65a6b"/>
    <resource>
      <Organization>
        <id value="e6dd7d8c-5744-440a-8347-d932a8f65a6b"/>
        <meta>
          <profile value="http://medcomfhir.dk/ig/messaging/StructureDefinition/medcom-messaging-organization|4.0.1"/>
        </meta>
        <text>
          <status value="generated"/><div xmlns="http://www.w3.org/1999/xhtml"><a name="Organization_e6dd7d8c-5744-440a-8347-d932a8f65a6b"> </a><p class="res-header-id"><b>Generated Narrative: Organization e6dd7d8c-5744-440a-8347-d932a8f65a6b</b></p><a name="e6dd7d8c-5744-440a-8347-d932a8f65a6b"> </a><a name="hce6dd7d8c-5744-440a-8347-d932a8f65a6b"> </a><div style="display: inline-block; background-color: #d9e0e7; padding: 6px; margin: 4px; border: 1px solid #8da1b4; border-radius: 5px; line-height: 60%"><p style="margin-bottom: 0px"/><p style="margin-bottom: 0px">Profile: <a href="http://medcomfhir.dk/ig/messaging/4.0.1/StructureDefinition-medcom-messaging-organization.html">MedComMessagingOrganizationversion: null4.0.1)</a></p></div><p><b>identifier</b>: <code>https://www.gs1.org/gln</code>/5790000209354, <code>urn:oid:1.2.208.176.1.1</code>/265161000016000</p><p><b>name</b>: Hjerteafdelingen på Herlev og Gentofte hospital</p></div>
        </text>
        <identifier>
          <system value="https://www.gs1.org/gln"/>
          <value value="5790000209354"/>
        </identifier>
        <identifier>
          <system value="urn:oid:1.2.208.176.1.1"/>
          <value value="265161000016000"/>
        </identifier>
        <name value="Hjerteafdelingen på Herlev og Gentofte hospital"/>
      </Organization>
    </resource>
  </entry>
  <entry>
    <fullUrl value="https://medcomfhir.dk/ig/carecommunication/Provenance/2240d2e5-99a9-494a-b166-a8f0f687c114"/>
    <resource>
      <Provenance>
        <id value="2240d2e5-99a9-494a-b166-a8f0f687c114"/>
        <meta>
          <profile value="http://medcomfhir.dk/ig/carecommunication/StructureDefinition/medcom-careCommunication-provenance"/>
        </meta>
        <text>
          <status value="generated"/><div xmlns="http://www.w3.org/1999/xhtml"><a name="Provenance_2240d2e5-99a9-494a-b166-a8f0f687c114"> </a><p class="res-header-id"><b>Generated Narrative: Provenance 2240d2e5-99a9-494a-b166-a8f0f687c114</b></p><a name="2240d2e5-99a9-494a-b166-a8f0f687c114"> </a><a name="hc2240d2e5-99a9-494a-b166-a8f0f687c114"> </a><div style="display: inline-block; background-color: #d9e0e7; padding: 6px; margin: 4px; border: 1px solid #8da1b4; border-radius: 5px; line-height: 60%"><p style="margin-bottom: 0px"/><p style="margin-bottom: 0px">Profile: <a href="http://medcomfhir.dk/ig/carecommunication/5.0.1/StructureDefinition-medcom-careCommunication-provenance.html">MedComCareCommunicationProvenance</a></p></div><p>Provenance for <a href="MessageHeader-9db30fd5-f443-4c7f-8e1a-e8da7e758f0a.html">MessageHeader: event[x] = Care Communication Message (MedComMessagingEventCodes#care-communication-message); definition = http://medcomfhir.dk/ig/messagedefinitions/MessageDefinition/MedComCareCommunicationMessageDefinition|5.0</a></p><p>Summary</p><table class="grid"><tr><td>Occurrence</td><td>2024-08-21 12:00:00+0200</td></tr><tr><td>Recorded</td><td>2024-08-21 12:00:00+0200</td></tr><tr><td>Activity</td><td><span title="Codes:{http://medcomfhir.dk/ig/terminology/CodeSystem/medcom-messaging-activityCodes new-message}">A new message has been sent</span></td></tr></table><p><b>Agents</b></p><table class="grid"><tr><td><b>who</b></td></tr><tr><td><a href="Organization-e6dd7d8c-5744-440a-8347-d932a8f65a6b.html">Organization Hjerteafdelingen på Herlev og Gentofte hospital</a></td></tr></table></div>
        </text>
        <target>
          <reference value="MessageHeader/9db30fd5-f443-4c7f-8e1a-e8da7e758f0a"/>
        </target>
        <occurredDateTime value="2024-08-21T12:00:00+02:00"/>
        <recorded value="2024-08-21T12:00:00+02:00"/>
        <activity>
          <coding>
            <system value="http://medcomfhir.dk/ig/terminology/CodeSystem/medcom-messaging-activityCodes"/>
            <code value="new-message"/>
          </coding>
        </activity>
        <agent>
          <who>
            <reference value="Organization/e6dd7d8c-5744-440a-8347-d932a8f65a6b"/>
          </who>
        </agent>
        <entity>
          <role value="source"/>
          <what>
            <identifier>
              <value value="urn:uuid:71a92aba-ee31-4ccf-86ed-3d6b823f4c67"/>
            </identifier>
          </what>
        </entity>
      </Provenance>
    </resource>
  </entry>
</Bundle>