<?xml version="1.0" encoding="UTF-8"?>

<Bundle xmlns="http://hl7.org/fhir">
  <id value="R-Tek-G-20fcbedb-ced8-4949-9edf-a145e0bb9b09"/>
  <meta>
    <profile value="http://medcomfhir.dk/ig/carecommunication/StructureDefinition/medcom-careCommunication-message|5.0.1"/>
  </meta>
  <type value="message"/>
  <timestamp value="2024-08-23T16:00:00+02:00"/>
  <entry>
    <fullUrl value="https://medcomfhir.dk/ig/carecommunication/MessageHeader/f7f519bd-a104-43fb-ab8a-058eeaec68c7"/>
    <resource>
      <MessageHeader>
        <id value="f7f519bd-a104-43fb-ab8a-058eeaec68c7"/>
        <meta>
          <profile value="http://medcomfhir.dk/ig/carecommunication/StructureDefinition/medcom-careCommunication-messageHeader|5.0.1"/>
        </meta>
        <text>
          <status value="generated"/><div xmlns="http://www.w3.org/1999/xhtml"><a name="MessageHeader_f7f519bd-a104-43fb-ab8a-058eeaec68c7"> </a><p class="res-header-id"><b>Generated Narrative: MessageHeader f7f519bd-a104-43fb-ab8a-058eeaec68c7</b></p><a name="f7f519bd-a104-43fb-ab8a-058eeaec68c7"> </a><a name="hcf7f519bd-a104-43fb-ab8a-058eeaec68c7"> </a><div style="display: inline-block; background-color: #d9e0e7; padding: 6px; margin: 4px; border: 1px solid #8da1b4; border-radius: 5px; line-height: 60%"><p style="margin-bottom: 0px"/><p style="margin-bottom: 0px">Profile: <a href="http://medcomfhir.dk/ig/carecommunication/5.0.1/StructureDefinition-medcom-careCommunication-messageHeader.html">MedComCareCommunicationMessageHeaderversion: null5.0.1)</a></p></div><p><b>event</b>: <a href="http://medcomfhir.dk/ig/terminology/2.0.1/CodeSystem-medcom-messaging-eventCodes.html#medcom-messaging-eventCodes-care-communication-message">MedComMessagingEventCodes care-communication-message</a>: Care Communication Message</p><h3>Destinations</h3><table class="grid"><tr><td style="display: none">-</td><td><b>Extension</b></td><td><b>Endpoint</b></td><td><b>Receiver</b></td></tr><tr><td style="display: none">*</td><td/><td><a href="https://sor2.sum.dsdn.dk/#id=1017421000016003">https://sor2.sum.dsdn.dk/#id=1017421000016003</a></td><td><a href="Organization-d8ca8b48-565a-46c8-a1c8-e781c498626a.html">Organization 2100 Lægehuset Østerbro</a></td></tr></table><p><b>sender</b>: <a href="Organization-aea5f134-5cc9-44b1-b5db-7155e45717ee.html">Organization Sundhedsplejen, Aabenraa kommune</a></p><h3>Sources</h3><table class="grid"><tr><td style="display: none">-</td><td><b>Endpoint</b></td></tr><tr><td style="display: none">*</td><td><a href="https://sor2.sum.dsdn.dk/#id=330461000016004">https://sor2.sum.dsdn.dk/#id=330461000016004</a></td></tr></table><p><b>focus</b>: <a href="Communication-930876e5-8cf8-40f0-bd6c-3e38520d61de.html">Communication: identifier = urn:uuid:b84738c1-a67f-4de9-a883-fab6d0ba0c44; status = unknown; category = Dødsfald; topic = </a></p><p><b>definition</b>: <a href="http://medcomfhir.dk/ig/messagedefinitions/1.0.0/MessageDefinition-MedComCareCommunicationMessageDefinitionV5.0.html">http://medcomfhir.dk/ig/messagedefinitions/MessageDefinition/MedComCareCommunicationMessageDefinition|5.0</a></p></div>
        </text>
        <eventCoding>
          <system value="http://medcomfhir.dk/ig/terminology/CodeSystem/medcom-messaging-eventCodes"/>
          <code value="care-communication-message"/>
        </eventCoding>
        <destination>
          <extension url="http://medcomfhir.dk/ig/messaging/StructureDefinition/medcom-messaging-destinationUseExtension">
            <valueCoding>
              <system value="http://medcomfhir.dk/ig/terminology/CodeSystem/medcom-messaging-destinationUse"/>
              <code value="primary"/>
            </valueCoding>
          </extension>
          <endpoint value="https://sor2.sum.dsdn.dk/#id=1017421000016003"/>
          <receiver>
            <reference value="Organization/d8ca8b48-565a-46c8-a1c8-e781c498626a"/>
          </receiver>
        </destination>
        <sender>
          <reference value="Organization/aea5f134-5cc9-44b1-b5db-7155e45717ee"/>
        </sender>
        <source>
          <endpoint value="https://sor2.sum.dsdn.dk/#id=330461000016004"/>
        </source>
        <focus>
          <reference value="Communication/930876e5-8cf8-40f0-bd6c-3e38520d61de"/>
        </focus>
        <definition value="http://medcomfhir.dk/ig/messagedefinitions/MessageDefinition/MedComCareCommunicationMessageDefinition|5.0"/>
      </MessageHeader>
    </resource>
  </entry>
  <entry>
    <fullUrl value="https://medcomfhir.dk/ig/carecommunication/Patient/e85e8d47-46a9-4b6a-b86d-9dcf96d24543"/>
    <resource>
      <Patient>
        <id value="e85e8d47-46a9-4b6a-b86d-9dcf96d24543"/>
        <meta>
          <profile value="http://medcomfhir.dk/ig/core/StructureDefinition/medcom-core-patient|3.0.1"/>
        </meta>
        <text>
          <status value="generated"/><div xmlns="http://www.w3.org/1999/xhtml"><a name="Patient_e85e8d47-46a9-4b6a-b86d-9dcf96d24543"> </a><p class="res-header-id"><b>Generated Narrative: Patient e85e8d47-46a9-4b6a-b86d-9dcf96d24543</b></p><a name="e85e8d47-46a9-4b6a-b86d-9dcf96d24543"> </a><a name="hce85e8d47-46a9-4b6a-b86d-9dcf96d24543"> </a><div style="display: inline-block; background-color: #d9e0e7; padding: 6px; margin: 4px; border: 1px solid #8da1b4; border-radius: 5px; line-height: 60%"><p style="margin-bottom: 0px"/><p style="margin-bottom: 0px">Profile: <a href="http://medcomfhir.dk/ig/core/3.0.1/StructureDefinition-medcom-core-patient.html">MedComCorePatientversion: null3.0.1)</a></p></div><p style="border: 1px #661aff solid; background-color: #e6e6ff; padding: 10px;">Elmer (official) (no stated gender), DoB Unknown ( urn:oid:1.2.208.176.1.2#2509479989)</p><hr/></div>
        </text>
        <identifier>
          <system value="urn:oid:1.2.208.176.1.2"/>
          <value value="2509479989"/>
        </identifier>
        <name>
          <use value="official"/>
          <family value="Elmer"/>
        </name>
      </Patient>
    </resource>
  </entry>
  <entry>
    <fullUrl value="https://medcomfhir.dk/ig/carecommunication/Communication/930876e5-8cf8-40f0-bd6c-3e38520d61de"/>
    <resource>
      <Communication>
        <id value="930876e5-8cf8-40f0-bd6c-3e38520d61de"/>
        <meta>
          <profile value="http://medcomfhir.dk/ig/carecommunication/StructureDefinition/medcom-careCommunication-communication|5.0.1"/>
        </meta>
        <text>
          <status value="extensions"/><div xmlns="http://www.w3.org/1999/xhtml"><a name="Communication_930876e5-8cf8-40f0-bd6c-3e38520d61de"> </a><p class="res-header-id"><b>Generated Narrative: Communication 930876e5-8cf8-40f0-bd6c-3e38520d61de</b></p><a name="930876e5-8cf8-40f0-bd6c-3e38520d61de"> </a><a name="hc930876e5-8cf8-40f0-bd6c-3e38520d61de"> </a><div style="display: inline-block; background-color: #d9e0e7; padding: 6px; margin: 4px; border: 1px solid #8da1b4; border-radius: 5px; line-height: 60%"><p style="margin-bottom: 0px"/><p style="margin-bottom: 0px">Profile: <a href="http://medcomfhir.dk/ig/carecommunication/5.0.1/StructureDefinition-medcom-careCommunication-communication.html">MedComCareCommunicationversion: null5.0.1)</a></p></div><p><b>identifier</b>: urn:uuid:b84738c1-a67f-4de9-a883-fab6d0ba0c44</p><p><b>status</b>: Unknown</p><p><b>category</b>: <span title="Codes:{http://medcomfhir.dk/ig/terminology/CodeSystem/medcom-careCommunication-categoryCodes decease}">Dødsfald</span></p><p><b>subject</b>: <a href="Patient-e85e8d47-46a9-4b6a-b86d-9dcf96d24543.html">Elmer (official) (no stated gender), DoB Unknown ( urn:oid:1.2.208.176.1.2#2509479989)</a></p><p><b>topic</b>: <span title="Codes:">Afgået ved døden</span></p><blockquote><p><b>payload</b></p><p><b>DateTimeExtension</b>: 2024-08-23 16:00:00+0200</p><p><b>IdentifierExtension</b>: urn:uuid:1df44fde-c8e1-4d0c-99cd-fc521cb728e5</p><p><b>PractitionerExtension</b>: <a href="PractitionerRole-8a11159b-2b92-4232-9990-09bbae6ec6cb.html">PractitionerRole Overlæge</a></p><p><b>ContactExtension</b>: ph: 85572787</p><p><b>content</b>: Til rette vedkommende hos Per Thorsleth. Bruno Elmer er desværre død i nat kl. 4.15. I hans kalender fremgår det, at han vil komme til læge i morgen kl. 11. Det gør han ikke.
Med venlig hilsen
Kim Jensen
Overlæge</p></blockquote></div>
        </text>
        <identifier>
          <value value="urn:uuid:b84738c1-a67f-4de9-a883-fab6d0ba0c44"/>
        </identifier>
        <status value="unknown"/>
        <category>
          <coding>
            <system value="http://medcomfhir.dk/ig/terminology/CodeSystem/medcom-careCommunication-categoryCodes"/>
            <code value="decease"/>
          </coding>
        </category>
        <subject>
          <reference value="Patient/e85e8d47-46a9-4b6a-b86d-9dcf96d24543"/>
        </subject>
        <topic>
          <text value="Afgået ved døden"/>
        </topic>
        <payload>
          <extension url="http://medcomfhir.dk/ig/core/StructureDefinition/medcom-core-datetime-extension">
            <valueDateTime value="2024-08-23T16:00:00+02:00"/>
          </extension>
          <extension url="http://medcomfhir.dk/ig/core/StructureDefinition/medcom-core-identifier-extension">
            <valueIdentifier>
              <value value="urn:uuid:1df44fde-c8e1-4d0c-99cd-fc521cb728e5"/>
              <assigner>
                <reference value="Organization/aea5f134-5cc9-44b1-b5db-7155e45717ee"/>
              </assigner>
            </valueIdentifier>
          </extension>
          <extension url="http://medcomfhir.dk/ig/core/StructureDefinition/medcom-core-practitioner-extension">
            <valueReference>
              <reference value="PractitionerRole/8a11159b-2b92-4232-9990-09bbae6ec6cb"/>
            </valueReference>
          </extension>
          <extension url="http://medcomfhir.dk/ig/core/StructureDefinition/medcom-core-contact-extension">
            <valueContactPoint>
              <system value="phone"/>
              <value value="85572787"/>
            </valueContactPoint>
          </extension>
          <contentString value="Til rette vedkommende hos Per Thorsleth. Bruno Elmer er desværre død i nat kl. 4.15. I hans kalender fremgår det, at han vil komme til læge i morgen kl. 11. Det gør han ikke.&#xA;Med venlig hilsen&#xA;Kim Jensen&#xA;Overlæge"/>
        </payload>
      </Communication>
    </resource>
  </entry>
  <entry>
    <fullUrl value="https://medcomfhir.dk/ig/carecommunication/PractitionerRole/8a11159b-2b92-4232-9990-09bbae6ec6cb"/>
    <resource>
      <PractitionerRole>
        <id value="8a11159b-2b92-4232-9990-09bbae6ec6cb"/>
        <meta>
          <profile value="http://medcomfhir.dk/ig/core/StructureDefinition/medcom-core-practitionerrole|3.0.1"/>
        </meta>
        <text>
          <status value="generated"/><div xmlns="http://www.w3.org/1999/xhtml"><a name="PractitionerRole_8a11159b-2b92-4232-9990-09bbae6ec6cb"> </a><p class="res-header-id"><b>Generated Narrative: PractitionerRole 8a11159b-2b92-4232-9990-09bbae6ec6cb</b></p><a name="8a11159b-2b92-4232-9990-09bbae6ec6cb"> </a><a name="hc8a11159b-2b92-4232-9990-09bbae6ec6cb"> </a><div style="display: inline-block; background-color: #d9e0e7; padding: 6px; margin: 4px; border: 1px solid #8da1b4; border-radius: 5px; line-height: 60%"><p style="margin-bottom: 0px"/><p style="margin-bottom: 0px">Profile: <a href="http://medcomfhir.dk/ig/core/3.0.1/StructureDefinition-medcom-core-practitionerrole.html">MedComCorePractitionerRoleversion: null3.0.1)</a></p></div><p><b>practitioner</b>: <a href="Practitioner-5edc1273-b409-4fcc-a39c-15d8beb3ae71.html">Practitioner Kim Jensen </a></p><p><b>code</b>: <span title="Codes:{http://medcomfhir.dk/ig/terminology/CodeSystem/medcom-core-PractitionerRolesSKSadministrativ overlaege}">Overlæge</span></p></div>
        </text>
        <practitioner>
          <reference value="Practitioner/5edc1273-b409-4fcc-a39c-15d8beb3ae71"/>
        </practitioner>
        <code>
          <coding>
            <system value="http://medcomfhir.dk/ig/terminology/CodeSystem/medcom-core-PractitionerRolesSKSadministrativ"/>
            <code value="overlaege"/>
          </coding>
        </code>
      </PractitionerRole>
    </resource>
  </entry>
  <entry>
    <fullUrl value="https://medcomfhir.dk/ig/carecommunication/Practitioner/5edc1273-b409-4fcc-a39c-15d8beb3ae71"/>
    <resource>
      <Practitioner>
        <id value="5edc1273-b409-4fcc-a39c-15d8beb3ae71"/>
        <meta>
          <profile value="http://medcomfhir.dk/ig/core/StructureDefinition/medcom-core-practitioner|3.0.1"/>
        </meta>
        <text>
          <status value="generated"/><div xmlns="http://www.w3.org/1999/xhtml"><a name="Practitioner_5edc1273-b409-4fcc-a39c-15d8beb3ae71"> </a><p class="res-header-id"><b>Generated Narrative: Practitioner 5edc1273-b409-4fcc-a39c-15d8beb3ae71</b></p><a name="5edc1273-b409-4fcc-a39c-15d8beb3ae71"> </a><a name="hc5edc1273-b409-4fcc-a39c-15d8beb3ae71"> </a><div style="display: inline-block; background-color: #d9e0e7; padding: 6px; margin: 4px; border: 1px solid #8da1b4; border-radius: 5px; line-height: 60%"><p style="margin-bottom: 0px"/><p style="margin-bottom: 0px">Profile: <a href="http://medcomfhir.dk/ig/core/3.0.1/StructureDefinition-medcom-core-practitioner.html">MedComCorePractitionerversion: null3.0.1)</a></p></div><p><b>name</b>: Kim Jensen </p></div>
        </text>
        <name>
          <family value="Jensen"/>
          <given value="Kim"/>
        </name>
      </Practitioner>
    </resource>
  </entry>
  <entry>
    <fullUrl value="https://medcomfhir.dk/ig/carecommunication/Organization/aea5f134-5cc9-44b1-b5db-7155e45717ee"/>
    <resource>
      <Organization>
        <id value="aea5f134-5cc9-44b1-b5db-7155e45717ee"/>
        <meta>
          <profile value="http://medcomfhir.dk/ig/messaging/StructureDefinition/medcom-messaging-organization|4.0.1"/>
        </meta>
        <text>
          <status value="generated"/><div xmlns="http://www.w3.org/1999/xhtml"><a name="Organization_aea5f134-5cc9-44b1-b5db-7155e45717ee"> </a><p class="res-header-id"><b>Generated Narrative: Organization aea5f134-5cc9-44b1-b5db-7155e45717ee</b></p><a name="aea5f134-5cc9-44b1-b5db-7155e45717ee"> </a><a name="hcaea5f134-5cc9-44b1-b5db-7155e45717ee"> </a><div style="display: inline-block; background-color: #d9e0e7; padding: 6px; margin: 4px; border: 1px solid #8da1b4; border-radius: 5px; line-height: 60%"><p style="margin-bottom: 0px"/><p style="margin-bottom: 0px">Profile: <a href="http://medcomfhir.dk/ig/messaging/4.0.1/StructureDefinition-medcom-messaging-organization.html">MedComMessagingOrganizationversion: null4.0.1)</a></p></div><p><b>identifier</b>: <code>https://www.gs1.org/gln</code>/5790001353308, <code>urn:oid:1.2.208.176.1.1</code>/330461000016004</p><p><b>name</b>: Sundhedsplejen, Aabenraa kommune</p></div>
        </text>
        <identifier>
          <system value="https://www.gs1.org/gln"/>
          <value value="5790001353308"/>
        </identifier>
        <identifier>
          <system value="urn:oid:1.2.208.176.1.1"/>
          <value value="330461000016004"/>
        </identifier>
        <name value="Sundhedsplejen, Aabenraa kommune"/>
      </Organization>
    </resource>
  </entry>
  <entry>
    <fullUrl value="https://medcomfhir.dk/ig/carecommunication/Organization/d8ca8b48-565a-46c8-a1c8-e781c498626a"/>
    <resource>
      <Organization>
        <id value="d8ca8b48-565a-46c8-a1c8-e781c498626a"/>
        <meta>
          <profile value="http://medcomfhir.dk/ig/messaging/StructureDefinition/medcom-messaging-organization|4.0.1"/>
        </meta>
        <text>
          <status value="generated"/><div xmlns="http://www.w3.org/1999/xhtml"><a name="Organization_d8ca8b48-565a-46c8-a1c8-e781c498626a"> </a><p class="res-header-id"><b>Generated Narrative: Organization d8ca8b48-565a-46c8-a1c8-e781c498626a</b></p><a name="d8ca8b48-565a-46c8-a1c8-e781c498626a"> </a><a name="hcd8ca8b48-565a-46c8-a1c8-e781c498626a"> </a><div style="display: inline-block; background-color: #d9e0e7; padding: 6px; margin: 4px; border: 1px solid #8da1b4; border-radius: 5px; line-height: 60%"><p style="margin-bottom: 0px"/><p style="margin-bottom: 0px">Profile: <a href="http://medcomfhir.dk/ig/messaging/4.0.1/StructureDefinition-medcom-messaging-organization.html">MedComMessagingOrganizationversion: null4.0.1)</a></p></div><p><b>identifier</b>: <code>https://www.gs1.org/gln</code>/5790002408496, <code>urn:oid:1.2.208.176.1.1</code>/1017421000016003</p><p><b>name</b>: 2100 Lægehuset Østerbro</p></div>
        </text>
        <identifier>
          <system value="https://www.gs1.org/gln"/>
          <value value="5790002408496"/>
        </identifier>
        <identifier>
          <system value="urn:oid:1.2.208.176.1.1"/>
          <value value="1017421000016003"/>
        </identifier>
        <name value="2100 Lægehuset Østerbro"/>
      </Organization>
    </resource>
  </entry>
  <entry>
    <fullUrl value="https://medcomfhir.dk/ig/carecommunication/Provenance/520281e1-e735-4e5c-8980-fb8a36e820cb"/>
    <resource>
      <Provenance>
        <id value="520281e1-e735-4e5c-8980-fb8a36e820cb"/>
        <meta>
          <profile value="http://medcomfhir.dk/ig/carecommunication/StructureDefinition/medcom-careCommunication-provenance"/>
        </meta>
        <text>
          <status value="generated"/><div xmlns="http://www.w3.org/1999/xhtml"><a name="Provenance_520281e1-e735-4e5c-8980-fb8a36e820cb"> </a><p class="res-header-id"><b>Generated Narrative: Provenance 520281e1-e735-4e5c-8980-fb8a36e820cb</b></p><a name="520281e1-e735-4e5c-8980-fb8a36e820cb"> </a><a name="hc520281e1-e735-4e5c-8980-fb8a36e820cb"> </a><div style="display: inline-block; background-color: #d9e0e7; padding: 6px; margin: 4px; border: 1px solid #8da1b4; border-radius: 5px; line-height: 60%"><p style="margin-bottom: 0px"/><p style="margin-bottom: 0px">Profile: <a href="http://medcomfhir.dk/ig/carecommunication/5.0.1/StructureDefinition-medcom-careCommunication-provenance.html">MedComCareCommunicationProvenance</a></p></div><p>Provenance for <a href="MessageHeader-f7f519bd-a104-43fb-ab8a-058eeaec68c7.html">MessageHeader: event[x] = Care Communication Message (MedComMessagingEventCodes#care-communication-message); definition = http://medcomfhir.dk/ig/messagedefinitions/MessageDefinition/MedComCareCommunicationMessageDefinition|5.0</a></p><p>Summary</p><table class="grid"><tr><td>Occurrence</td><td>2024-08-23 16:00:00+0200</td></tr><tr><td>Recorded</td><td>2024-08-23 16:00:00+0200</td></tr><tr><td>Activity</td><td><span title="Codes:{http://medcomfhir.dk/ig/terminology/CodeSystem/medcom-messaging-activityCodes new-message}">A new message has been sent</span></td></tr></table><p><b>Agents</b></p><table class="grid"><tr><td><b>who</b></td></tr><tr><td><a href="Organization-aea5f134-5cc9-44b1-b5db-7155e45717ee.html">Organization Sundhedsplejen, Aabenraa kommune</a></td></tr></table></div>
        </text>
        <target>
          <reference value="MessageHeader/f7f519bd-a104-43fb-ab8a-058eeaec68c7"/>
        </target>
        <occurredDateTime value="2024-08-23T16:00:00+02:00"/>
        <recorded value="2024-08-23T16:00:00+02:00"/>
        <activity>
          <coding>
            <system value="http://medcomfhir.dk/ig/terminology/CodeSystem/medcom-messaging-activityCodes"/>
            <code value="new-message"/>
          </coding>
        </activity>
        <agent>
          <who>
            <reference value="Organization/aea5f134-5cc9-44b1-b5db-7155e45717ee"/>
          </who>
        </agent>
        <entity>
          <role value="source"/>
          <what>
            <identifier>
              <value value="urn:uuid:1df44fde-c8e1-4d0c-99cd-fc521cb728e5"/>
            </identifier>
          </what>
        </entity>
      </Provenance>
    </resource>
  </entry>
</Bundle>