{
  "resourceType" : "Bundle",
  "id" : "S-C-new-aca3d03a-febd-4b88-ad53-ac1bc36da615",
  "meta" : {
    "profile" : ["http://medcomfhir.dk/ig/carecommunication/StructureDefinition/medcom-careCommunication-message"]
  },
  "type" : "message",
  "timestamp" : "2024-09-11T15:20:00+02:00",
  "entry" : [{
    "fullUrl" : "https://medcomfhir.dk/ig/carecommunication/MessageHeader/5a663fe8-c361-411d-876d-4f6b06749e59",
    "resource" : {
      "resourceType" : "MessageHeader",
      "id" : "5a663fe8-c361-411d-876d-4f6b06749e59",
      "meta" : {
        "profile" : ["http://medcomfhir.dk/ig/carecommunication/StructureDefinition/medcom-careCommunication-messageHeader"]
      },
      "text" : {
        "status" : "generated",
        "div" : "<div xmlns=\"http://www.w3.org/1999/xhtml\"><a name=\"MessageHeader_5a663fe8-c361-411d-876d-4f6b06749e59\"> </a><p class=\"res-header-id\"><b>Generated Narrative: MessageHeader 5a663fe8-c361-411d-876d-4f6b06749e59</b></p><a name=\"5a663fe8-c361-411d-876d-4f6b06749e59\"> </a><a name=\"hc5a663fe8-c361-411d-876d-4f6b06749e59\"> </a><div style=\"display: inline-block; background-color: #d9e0e7; padding: 6px; margin: 4px; border: 1px solid #8da1b4; border-radius: 5px; line-height: 60%\"><p style=\"margin-bottom: 0px\"/><p style=\"margin-bottom: 0px\">Profile: <a href=\"http://medcomfhir.dk/ig/carecommunication/5.0.0/StructureDefinition-medcom-careCommunication-messageHeader.html\">MedComCareCommunicationMessageHeader</a></p></div><p><b>event</b>: <a href=\"http://medcomfhir.dk/ig/terminology/1.8.1/CodeSystem-medcom-messaging-eventCodes.html#medcom-messaging-eventCodes-care-communication-message\">MedComMessagingEventCodes care-communication-message</a>: Care Communication Message</p><h3>Destinations</h3><table class=\"grid\"><tr><td style=\"display: none\">-</td><td><b>Extension</b></td><td><b>Endpoint</b></td><td><b>Receiver</b></td></tr><tr><td style=\"display: none\">*</td><td/><td><a href=\"https://sor2.sum.dsdn.dk/#id=1017421000016003\">https://sor2.sum.dsdn.dk/#id=1017421000016003</a></td><td><a href=\"Organization-e640191b-a64c-4d05-ab28-285b4e91a816.html\">Organization 2100 Lægehuset Østerbro</a></td></tr></table><p><b>sender</b>: <a href=\"Organization-cf3b8736-ffca-48a1-b2e7-550b5c503be8.html\">Organization Hjemmesygeplejen, Aalborg kommune</a></p><h3>Sources</h3><table class=\"grid\"><tr><td style=\"display: none\">-</td><td><b>Endpoint</b></td></tr><tr><td style=\"display: none\">*</td><td><a href=\"https://sor2.sum.dsdn.dk/#id=328081000016004\">https://sor2.sum.dsdn.dk/#id=328081000016004</a></td></tr></table><p><b>focus</b>: <a href=\"Communication-38f751db-339c-46a6-a10d-cb88f72b2150.html\">Communication: identifier = urn:uuid:5fdc8520-7a2f-497c-97ed-fcca13f12f8b; status = unknown; category = Undersøgelsessvar; topic = </a></p><p><b>definition</b>: <a href=\"http://medcomfhir.dk/ig/messagedefinitions/1.0.0/MessageDefinition-MedComCareCommunicationMessageDefinitionV5.0.html\">http://medcomfhir.dk/ig/messagedefinitions/MessageDefinition/MedComCareCommunicationMessageDefinition|5.0</a></p></div>"
      },
      "eventCoding" : {
        "system" : "http://medcomfhir.dk/ig/terminology/CodeSystem/medcom-messaging-eventCodes",
        "code" : "care-communication-message"
      },
      "destination" : [{
        "extension" : [{
          "url" : "http://medcomfhir.dk/ig/messaging/StructureDefinition/medcom-messaging-destinationUseExtension",
          "valueCoding" : {
            "system" : "http://medcomfhir.dk/ig/terminology/CodeSystem/medcom-messaging-destinationUse",
            "code" : "primary"
          }
        }],
        "endpoint" : "https://sor2.sum.dsdn.dk/#id=1017421000016003",
        "receiver" : {
          "reference" : "Organization/e640191b-a64c-4d05-ab28-285b4e91a816"
        }
      }],
      "sender" : {
        "reference" : "Organization/cf3b8736-ffca-48a1-b2e7-550b5c503be8"
      },
      "source" : {
        "endpoint" : "https://sor2.sum.dsdn.dk/#id=328081000016004"
      },
      "focus" : [{
        "reference" : "Communication/38f751db-339c-46a6-a10d-cb88f72b2150"
      }],
      "definition" : "http://medcomfhir.dk/ig/messagedefinitions/MessageDefinition/MedComCareCommunicationMessageDefinition|5.0"
    }
  },
  {
    "fullUrl" : "https://medcomfhir.dk/ig/carecommunication/Patient/8d7f4ef8-ac79-4b7d-b9e7-b769471221b2",
    "resource" : {
      "resourceType" : "Patient",
      "id" : "8d7f4ef8-ac79-4b7d-b9e7-b769471221b2",
      "meta" : {
        "profile" : ["http://medcomfhir.dk/ig/core/StructureDefinition/medcom-core-patient"]
      },
      "text" : {
        "status" : "generated",
        "div" : "<div xmlns=\"http://www.w3.org/1999/xhtml\"><a name=\"Patient_8d7f4ef8-ac79-4b7d-b9e7-b769471221b2\"> </a><p class=\"res-header-id\"><b>Generated Narrative: Patient 8d7f4ef8-ac79-4b7d-b9e7-b769471221b2</b></p><a name=\"8d7f4ef8-ac79-4b7d-b9e7-b769471221b2\"> </a><a name=\"hc8d7f4ef8-ac79-4b7d-b9e7-b769471221b2\"> </a><div style=\"display: inline-block; background-color: #d9e0e7; padding: 6px; margin: 4px; border: 1px solid #8da1b4; border-radius: 5px; line-height: 60%\"><p style=\"margin-bottom: 0px\"/><p style=\"margin-bottom: 0px\">Profile: <a href=\"http://medcomfhir.dk/ig/core/3.0.0/StructureDefinition-medcom-core-patient.html\">MedComCorePatient</a></p></div><p style=\"border: 1px #661aff solid; background-color: #e6e6ff; padding: 10px;\">Peter Hansen (official) (no stated gender), DoB Unknown ( urn:oid:1.2.208.176.1.6.1.1#0703921VJ5)</p><hr/></div>"
      },
      "identifier" : [{
        "system" : "urn:oid:1.2.208.176.1.6.1.1",
        "value" : "0703921VJ5"
      }],
      "name" : [{
        "use" : "official",
        "family" : "Hansen",
        "given" : ["Peter"]
      }]
    }
  },
  {
    "fullUrl" : "https://medcomfhir.dk/ig/carecommunication/Communication/38f751db-339c-46a6-a10d-cb88f72b2150",
    "resource" : {
      "resourceType" : "Communication",
      "id" : "38f751db-339c-46a6-a10d-cb88f72b2150",
      "meta" : {
        "profile" : ["http://medcomfhir.dk/ig/carecommunication/StructureDefinition/medcom-careCommunication-communication"]
      },
      "text" : {
        "status" : "extensions",
        "div" : "<div xmlns=\"http://www.w3.org/1999/xhtml\"><a name=\"Communication_38f751db-339c-46a6-a10d-cb88f72b2150\"> </a><p class=\"res-header-id\"><b>Generated Narrative: Communication 38f751db-339c-46a6-a10d-cb88f72b2150</b></p><a name=\"38f751db-339c-46a6-a10d-cb88f72b2150\"> </a><a name=\"hc38f751db-339c-46a6-a10d-cb88f72b2150\"> </a><div style=\"display: inline-block; background-color: #d9e0e7; padding: 6px; margin: 4px; border: 1px solid #8da1b4; border-radius: 5px; line-height: 60%\"><p style=\"margin-bottom: 0px\"/><p style=\"margin-bottom: 0px\">Profile: <a href=\"http://medcomfhir.dk/ig/carecommunication/5.0.0/StructureDefinition-medcom-careCommunication-communication.html\">MedComCareCommunication</a></p></div><p><b>identifier</b>: urn:uuid:5fdc8520-7a2f-497c-97ed-fcca13f12f8b</p><p><b>status</b>: Unknown</p><p><b>category</b>: <span title=\"Codes:{http://medcomfhir.dk/ig/terminology/CodeSystem/medcom-careCommunication-categoryCodes examination-results}\">Undersøgelsessvar</span></p><p><b>subject</b>: <a href=\"Patient-8d7f4ef8-ac79-4b7d-b9e7-b769471221b2.html\">Peter Hansen (official) (no stated gender), DoB Unknown ( urn:oid:1.2.208.176.1.6.1.1#0703921VJ5)</a></p><p><b>topic</b>: <span title=\"Codes:\">Resultater fra hjemmesygeplejen</span></p><blockquote><p><b>payload</b></p><p><b>DateTimeExtension</b>: 2024-09-11 15:20:00+0200</p><p><b>IdentifierExtension</b>: urn:uuid:c75a51cf-dab7-4bf9-9b13-b81700c78b05</p><p><b>PractitionerExtension</b>: <a href=\"PractitionerRole-68f7756d-b5f0-47db-924b-8bf0f6864b9e.html\">PractitionerRole Sygeplejerske</a></p><p><b>ContactExtension</b>: ph: 004523232323</p><p><b>content</b>: Til rette vedkommende. Hermed fremsendes undersøgelsesresultater fra seneste besøg af hjemmesygeplejen..... Blodtryk normalt. \nHilsen Michael Magnus Burns\nSygeplejerske</p></blockquote></div>"
      },
      "identifier" : [{
        "value" : "urn:uuid:5fdc8520-7a2f-497c-97ed-fcca13f12f8b"
      }],
      "status" : "unknown",
      "category" : [{
        "coding" : [{
          "system" : "http://medcomfhir.dk/ig/terminology/CodeSystem/medcom-careCommunication-categoryCodes",
          "code" : "examination-results"
        }]
      }],
      "subject" : {
        "reference" : "Patient/8d7f4ef8-ac79-4b7d-b9e7-b769471221b2"
      },
      "topic" : {
        "text" : "Resultater fra hjemmesygeplejen"
      },
      "payload" : [{
        "extension" : [{
          "url" : "http://medcomfhir.dk/ig/core/StructureDefinition/medcom-core-datetime-extension",
          "valueDateTime" : "2024-09-11T15:20:00+02:00"
        },
        {
          "url" : "http://medcomfhir.dk/ig/core/StructureDefinition/medcom-core-identifier-extension",
          "valueIdentifier" : {
            "value" : "urn:uuid:c75a51cf-dab7-4bf9-9b13-b81700c78b05",
            "assigner" : {
              "reference" : "Organization/cf3b8736-ffca-48a1-b2e7-550b5c503be8"
            }
          }
        },
        {
          "url" : "http://medcomfhir.dk/ig/core/StructureDefinition/medcom-core-practitioner-extension",
          "valueReference" : {
            "reference" : "PractitionerRole/68f7756d-b5f0-47db-924b-8bf0f6864b9e"
          }
        },
        {
          "url" : "http://medcomfhir.dk/ig/core/StructureDefinition/medcom-core-contact-extension",
          "valueContactPoint" : {
            "system" : "phone",
            "value" : "004523232323"
          }
        }],
        "contentString" : "Til rette vedkommende. Hermed fremsendes undersøgelsesresultater fra seneste besøg af hjemmesygeplejen..... Blodtryk normalt. \nHilsen Michael Magnus Burns\nSygeplejerske"
      }]
    }
  },
  {
    "fullUrl" : "https://medcomfhir.dk/ig/carecommunication/PractitionerRole/68f7756d-b5f0-47db-924b-8bf0f6864b9e",
    "resource" : {
      "resourceType" : "PractitionerRole",
      "id" : "68f7756d-b5f0-47db-924b-8bf0f6864b9e",
      "meta" : {
        "profile" : ["http://medcomfhir.dk/ig/core/StructureDefinition/medcom-core-practitionerrole"]
      },
      "text" : {
        "status" : "generated",
        "div" : "<div xmlns=\"http://www.w3.org/1999/xhtml\"><a name=\"PractitionerRole_68f7756d-b5f0-47db-924b-8bf0f6864b9e\"> </a><p class=\"res-header-id\"><b>Generated Narrative: PractitionerRole 68f7756d-b5f0-47db-924b-8bf0f6864b9e</b></p><a name=\"68f7756d-b5f0-47db-924b-8bf0f6864b9e\"> </a><a name=\"hc68f7756d-b5f0-47db-924b-8bf0f6864b9e\"> </a><div style=\"display: inline-block; background-color: #d9e0e7; padding: 6px; margin: 4px; border: 1px solid #8da1b4; border-radius: 5px; line-height: 60%\"><p style=\"margin-bottom: 0px\"/><p style=\"margin-bottom: 0px\">Profile: <a href=\"http://medcomfhir.dk/ig/core/3.0.0/StructureDefinition-medcom-core-practitionerrole.html\">MedComCorePractitionerRole</a></p></div><p><b>practitioner</b>: <a href=\"Practitioner-264a24ad-ef78-4289-987a-3f6dbc75ec01.html\">Practitioner Michael Magnus Burns </a></p><p><b>code</b>: <span title=\"Codes:{http://medcomfhir.dk/ig/terminology/CodeSystem/medcom-core-PractitionerRolesSKSadministrativ sygeplejerske}\">Sygeplejerske</span></p></div>"
      },
      "practitioner" : {
        "reference" : "Practitioner/264a24ad-ef78-4289-987a-3f6dbc75ec01"
      },
      "code" : [{
        "coding" : [{
          "system" : "http://medcomfhir.dk/ig/terminology/CodeSystem/medcom-core-PractitionerRolesSKSadministrativ",
          "code" : "sygeplejerske"
        }]
      }]
    }
  },
  {
    "fullUrl" : "https://medcomfhir.dk/ig/carecommunication/Practitioner/264a24ad-ef78-4289-987a-3f6dbc75ec01",
    "resource" : {
      "resourceType" : "Practitioner",
      "id" : "264a24ad-ef78-4289-987a-3f6dbc75ec01",
      "meta" : {
        "profile" : ["http://medcomfhir.dk/ig/core/StructureDefinition/medcom-core-practitioner"]
      },
      "text" : {
        "status" : "generated",
        "div" : "<div xmlns=\"http://www.w3.org/1999/xhtml\"><a name=\"Practitioner_264a24ad-ef78-4289-987a-3f6dbc75ec01\"> </a><p class=\"res-header-id\"><b>Generated Narrative: Practitioner 264a24ad-ef78-4289-987a-3f6dbc75ec01</b></p><a name=\"264a24ad-ef78-4289-987a-3f6dbc75ec01\"> </a><a name=\"hc264a24ad-ef78-4289-987a-3f6dbc75ec01\"> </a><div style=\"display: inline-block; background-color: #d9e0e7; padding: 6px; margin: 4px; border: 1px solid #8da1b4; border-radius: 5px; line-height: 60%\"><p style=\"margin-bottom: 0px\"/><p style=\"margin-bottom: 0px\">Profile: <a href=\"http://medcomfhir.dk/ig/core/3.0.0/StructureDefinition-medcom-core-practitioner.html\">MedComCorePractitioner</a></p></div><p><b>name</b>: Michael Magnus Burns </p></div>"
      },
      "name" : [{
        "family" : "Burns",
        "given" : ["Michael",
        "Magnus"]
      }]
    }
  },
  {
    "fullUrl" : "https://medcomfhir.dk/ig/carecommunication/Organization/cf3b8736-ffca-48a1-b2e7-550b5c503be8",
    "resource" : {
      "resourceType" : "Organization",
      "id" : "cf3b8736-ffca-48a1-b2e7-550b5c503be8",
      "meta" : {
        "profile" : ["http://medcomfhir.dk/ig/messaging/StructureDefinition/medcom-messaging-organization"]
      },
      "text" : {
        "status" : "generated",
        "div" : "<div xmlns=\"http://www.w3.org/1999/xhtml\"><a name=\"Organization_cf3b8736-ffca-48a1-b2e7-550b5c503be8\"> </a><p class=\"res-header-id\"><b>Generated Narrative: Organization cf3b8736-ffca-48a1-b2e7-550b5c503be8</b></p><a name=\"cf3b8736-ffca-48a1-b2e7-550b5c503be8\"> </a><a name=\"hccf3b8736-ffca-48a1-b2e7-550b5c503be8\"> </a><div style=\"display: inline-block; background-color: #d9e0e7; padding: 6px; margin: 4px; border: 1px solid #8da1b4; border-radius: 5px; line-height: 60%\"><p style=\"margin-bottom: 0px\"/><p style=\"margin-bottom: 0px\">Profile: <a href=\"http://medcomfhir.dk/ig/messaging/4.0.0/StructureDefinition-medcom-messaging-organization.html\">MedComMessagingOrganization</a></p></div><p><b>identifier</b>: <code>https://www.gs1.org/gln</code>/5790000121786, <code>urn:oid:1.2.208.176.1.1</code>/328081000016004</p><p><b>name</b>: Hjemmesygeplejen, Aalborg kommune</p></div>"
      },
      "identifier" : [{
        "system" : "https://www.gs1.org/gln",
        "value" : "5790000121786"
      },
      {
        "system" : "urn:oid:1.2.208.176.1.1",
        "value" : "328081000016004"
      }],
      "name" : "Hjemmesygeplejen, Aalborg kommune"
    }
  },
  {
    "fullUrl" : "https://medcomfhir.dk/ig/carecommunication/Organization/e640191b-a64c-4d05-ab28-285b4e91a816",
    "resource" : {
      "resourceType" : "Organization",
      "id" : "e640191b-a64c-4d05-ab28-285b4e91a816",
      "meta" : {
        "profile" : ["http://medcomfhir.dk/ig/messaging/StructureDefinition/medcom-messaging-organization"]
      },
      "text" : {
        "status" : "generated",
        "div" : "<div xmlns=\"http://www.w3.org/1999/xhtml\"><a name=\"Organization_e640191b-a64c-4d05-ab28-285b4e91a816\"> </a><p class=\"res-header-id\"><b>Generated Narrative: Organization e640191b-a64c-4d05-ab28-285b4e91a816</b></p><a name=\"e640191b-a64c-4d05-ab28-285b4e91a816\"> </a><a name=\"hce640191b-a64c-4d05-ab28-285b4e91a816\"> </a><div style=\"display: inline-block; background-color: #d9e0e7; padding: 6px; margin: 4px; border: 1px solid #8da1b4; border-radius: 5px; line-height: 60%\"><p style=\"margin-bottom: 0px\"/><p style=\"margin-bottom: 0px\">Profile: <a href=\"http://medcomfhir.dk/ig/messaging/4.0.0/StructureDefinition-medcom-messaging-organization.html\">MedComMessagingOrganization</a></p></div><p><b>identifier</b>: <code>https://www.gs1.org/gln</code>/5790002408496, <code>urn:oid:1.2.208.176.1.1</code>/1017421000016003</p><p><b>name</b>: 2100 Lægehuset Østerbro</p></div>"
      },
      "identifier" : [{
        "system" : "https://www.gs1.org/gln",
        "value" : "5790002408496"
      },
      {
        "system" : "urn:oid:1.2.208.176.1.1",
        "value" : "1017421000016003"
      }],
      "name" : "2100 Lægehuset Østerbro"
    }
  },
  {
    "fullUrl" : "https://medcomfhir.dk/ig/carecommunication/Provenance/a0c5b890-3c4c-4165-871c-e3fdf2608b47",
    "resource" : {
      "resourceType" : "Provenance",
      "id" : "a0c5b890-3c4c-4165-871c-e3fdf2608b47",
      "meta" : {
        "profile" : ["http://medcomfhir.dk/ig/carecommunication/StructureDefinition/medcom-careCommunication-provenance"]
      },
      "text" : {
        "status" : "generated",
        "div" : "<div xmlns=\"http://www.w3.org/1999/xhtml\"><a name=\"Provenance_a0c5b890-3c4c-4165-871c-e3fdf2608b47\"> </a><p class=\"res-header-id\"><b>Generated Narrative: Provenance a0c5b890-3c4c-4165-871c-e3fdf2608b47</b></p><a name=\"a0c5b890-3c4c-4165-871c-e3fdf2608b47\"> </a><a name=\"hca0c5b890-3c4c-4165-871c-e3fdf2608b47\"> </a><div style=\"display: inline-block; background-color: #d9e0e7; padding: 6px; margin: 4px; border: 1px solid #8da1b4; border-radius: 5px; line-height: 60%\"><p style=\"margin-bottom: 0px\"/><p style=\"margin-bottom: 0px\">Profile: <a href=\"http://medcomfhir.dk/ig/carecommunication/5.0.0/StructureDefinition-medcom-careCommunication-provenance.html\">MedComCareCommunicationProvenance</a></p></div><p>Provenance for <a href=\"MessageHeader-5a663fe8-c361-411d-876d-4f6b06749e59.html\">MessageHeader: event[x] = Care Communication Message (MedComMessagingEventCodes#care-communication-message); definition = http://medcomfhir.dk/ig/messagedefinitions/MessageDefinition/MedComCareCommunicationMessageDefinition|5.0</a></p><p>Summary</p><table class=\"grid\"><tr><td>Occurrence</td><td>2024-09-11 15:20:00+0200</td></tr><tr><td>Recorded</td><td>2024-09-11 15:20:00+0200</td></tr><tr><td>Activity</td><td><span title=\"Codes:{http://medcomfhir.dk/ig/terminology/CodeSystem/medcom-messaging-activityCodes new-message}\">A new message has been sent</span></td></tr></table><p><b>Agents</b></p><table class=\"grid\"><tr><td><b>who</b></td></tr><tr><td><a href=\"Organization-cf3b8736-ffca-48a1-b2e7-550b5c503be8.html\">Organization Hjemmesygeplejen, Aalborg kommune</a></td></tr></table></div>"
      },
      "target" : [{
        "reference" : "MessageHeader/5a663fe8-c361-411d-876d-4f6b06749e59"
      }],
      "occurredDateTime" : "2024-09-11T15:20:00+02:00",
      "recorded" : "2024-09-11T15:20:00+02:00",
      "activity" : {
        "coding" : [{
          "system" : "http://medcomfhir.dk/ig/terminology/CodeSystem/medcom-messaging-activityCodes",
          "code" : "new-message"
        }]
      },
      "agent" : [{
        "who" : {
          "reference" : "Organization/cf3b8736-ffca-48a1-b2e7-550b5c503be8"
        }
      }],
      "entity" : [{
        "role" : "source",
        "what" : {
          "identifier" : {
            "value" : "urn:uuid:c75a51cf-dab7-4bf9-9b13-b81700c78b05"
          }
        }
      }]
    }
  }]
}