<?xml version="1.0" encoding="UTF-8"?>

<Bundle xmlns="http://hl7.org/fhir">
  <id value="R-Tek-L-dublicate-fa97e431-332f-4605-ad37-c259dc2b8637"/>
  <meta>
    <profile value="http://medcomfhir.dk/ig/carecommunication/StructureDefinition/medcom-careCommunication-message|5.0.1"/>
  </meta>
  <type value="message"/>
  <timestamp value="2024-08-28T16:25:00+02:00"/>
  <entry>
    <fullUrl value="https://medcomfhir.dk/ig/carecommunication/MessageHeader/559e4be0-e1f2-4371-969d-29bbbd5ca9d1"/>
    <resource>
      <MessageHeader>
        <id value="559e4be0-e1f2-4371-969d-29bbbd5ca9d1"/>
        <meta>
          <profile value="http://medcomfhir.dk/ig/carecommunication/StructureDefinition/medcom-careCommunication-messageHeader|5.0.1"/>
        </meta>
        <text>
          <status value="generated"/><div xmlns="http://www.w3.org/1999/xhtml"><a name="MessageHeader_559e4be0-e1f2-4371-969d-29bbbd5ca9d1"> </a><p class="res-header-id"><b>Generated Narrative: MessageHeader 559e4be0-e1f2-4371-969d-29bbbd5ca9d1</b></p><a name="559e4be0-e1f2-4371-969d-29bbbd5ca9d1"> </a><a name="hc559e4be0-e1f2-4371-969d-29bbbd5ca9d1"> </a><div style="display: inline-block; background-color: #d9e0e7; padding: 6px; margin: 4px; border: 1px solid #8da1b4; border-radius: 5px; line-height: 60%"><p style="margin-bottom: 0px"/><p style="margin-bottom: 0px">Profile: <a href="http://medcomfhir.dk/ig/carecommunication/5.0.1/StructureDefinition-medcom-careCommunication-messageHeader.html">MedComCareCommunicationMessageHeaderversion: null5.0.1)</a></p></div><p><b>event</b>: <a href="http://medcomfhir.dk/ig/terminology/2.0.1/CodeSystem-medcom-messaging-eventCodes.html#medcom-messaging-eventCodes-care-communication-message">MedComMessagingEventCodes care-communication-message</a>: Care Communication Message</p><h3>Destinations</h3><table class="grid"><tr><td style="display: none">-</td><td><b>Extension</b></td><td><b>Endpoint</b></td><td><b>Receiver</b></td></tr><tr><td style="display: none">*</td><td/><td><a href="https://sor2.sum.dsdn.dk/#id=330461000016004">https://sor2.sum.dsdn.dk/#id=330461000016004</a></td><td><a href="Organization-996df80d-e9d3-4885-aad1-8609ad459a16.html">Organization Sundhedsplejen, Aabenraa kommune</a></td></tr></table><p><b>sender</b>: <a href="Organization-2052a3bd-c32d-4e81-b5ec-83f9ad012899.html">Organization Klinik for Ældresygdomme, AUH, Skejby</a></p><h3>Sources</h3><table class="grid"><tr><td style="display: none">-</td><td><b>Endpoint</b></td></tr><tr><td style="display: none">*</td><td><a href="https://sor2.sum.dsdn.dk/#id=441211000016000">https://sor2.sum.dsdn.dk/#id=441211000016000</a></td></tr></table><p><b>focus</b>: <a href="Communication-e49ad4b0-537a-442c-b624-e0ae956410da.html">Communication: identifier = urn:uuid:69ab69e8-af33-4e93-9171-7906ad43c1ab; status = unknown; category = Telemedicin</a></p><p><b>definition</b>: <a href="http://medcomfhir.dk/ig/messagedefinitions/1.0.0/MessageDefinition-MedComCareCommunicationMessageDefinitionV5.0.html">http://medcomfhir.dk/ig/messagedefinitions/MessageDefinition/MedComCareCommunicationMessageDefinition|5.0</a></p></div>
        </text>
        <eventCoding>
          <system value="http://medcomfhir.dk/ig/terminology/CodeSystem/medcom-messaging-eventCodes"/>
          <code value="care-communication-message"/>
        </eventCoding>
        <destination>
          <extension url="http://medcomfhir.dk/ig/messaging/StructureDefinition/medcom-messaging-destinationUseExtension">
            <valueCoding>
              <system value="http://medcomfhir.dk/ig/terminology/CodeSystem/medcom-messaging-destinationUse"/>
              <code value="primary"/>
            </valueCoding>
          </extension>
          <endpoint value="https://sor2.sum.dsdn.dk/#id=330461000016004"/>
          <receiver>
            <reference value="Organization/996df80d-e9d3-4885-aad1-8609ad459a16"/>
          </receiver>
        </destination>
        <sender>
          <reference value="Organization/2052a3bd-c32d-4e81-b5ec-83f9ad012899"/>
        </sender>
        <source>
          <endpoint value="https://sor2.sum.dsdn.dk/#id=441211000016000"/>
        </source>
        <focus>
          <reference value="Communication/e49ad4b0-537a-442c-b624-e0ae956410da"/>
        </focus>
        <definition value="http://medcomfhir.dk/ig/messagedefinitions/MessageDefinition/MedComCareCommunicationMessageDefinition|5.0"/>
      </MessageHeader>
    </resource>
  </entry>
  <entry>
    <fullUrl value="https://medcomfhir.dk/ig/carecommunication/Patient/283b6471-3134-4b7e-9d48-b6fad32e6384"/>
    <resource>
      <Patient>
        <id value="283b6471-3134-4b7e-9d48-b6fad32e6384"/>
        <meta>
          <profile value="http://medcomfhir.dk/ig/core/StructureDefinition/medcom-core-patient|3.0.1"/>
        </meta>
        <text>
          <status value="generated"/><div xmlns="http://www.w3.org/1999/xhtml"><a name="Patient_283b6471-3134-4b7e-9d48-b6fad32e6384"> </a><p class="res-header-id"><b>Generated Narrative: Patient 283b6471-3134-4b7e-9d48-b6fad32e6384</b></p><a name="283b6471-3134-4b7e-9d48-b6fad32e6384"> </a><a name="hc283b6471-3134-4b7e-9d48-b6fad32e6384"> </a><div style="display: inline-block; background-color: #d9e0e7; padding: 6px; margin: 4px; border: 1px solid #8da1b4; border-radius: 5px; line-height: 60%"><p style="margin-bottom: 0px"/><p style="margin-bottom: 0px">Profile: <a href="http://medcomfhir.dk/ig/core/3.0.1/StructureDefinition-medcom-core-patient.html">MedComCorePatientversion: null3.0.1)</a></p></div><p style="border: 1px #661aff solid; background-color: #e6e6ff; padding: 10px;">Bruno Test Elmer (official) (no stated gender), DoB Unknown ( urn:oid:1.2.208.176.1.2#2509479989)</p><hr/><table class="grid"><tr><td style="background-color: #f3f5da" title="Ways to contact the Patient">Contact Detail</td><td colspan="3"><ul><li>ph: 47899878(Mobile)</li><li>Testpark Allé 48 Hillerød 3400 </li></ul></td></tr></table></div>
        </text>
        <identifier>
          <system value="urn:oid:1.2.208.176.1.2"/>
          <value value="2509479989"/>
        </identifier>
        <name>
          <use value="official"/>
          <family value="Elmer"/>
          <given value="Bruno"/>
          <given value="Test"/>
        </name>
        <telecom>
          <system value="phone"/>
          <value value="47899878"/>
          <use value="mobile"/>
        </telecom>
        <address>
          <line value="Testpark Allé 48"/>
          <city value="Hillerød"/>
          <postalCode value="3400"/>
        </address>
      </Patient>
    </resource>
  </entry>
  <entry>
    <fullUrl value="https://medcomfhir.dk/ig/carecommunication/Communication/e49ad4b0-537a-442c-b624-e0ae956410da"/>
    <resource>
      <Communication>
        <id value="e49ad4b0-537a-442c-b624-e0ae956410da"/>
        <meta>
          <profile value="http://medcomfhir.dk/ig/carecommunication/StructureDefinition/medcom-careCommunication-communication|5.0.1"/>
        </meta>
        <text>
          <status value="extensions"/><div xmlns="http://www.w3.org/1999/xhtml"><a name="Communication_e49ad4b0-537a-442c-b624-e0ae956410da"> </a><p class="res-header-id"><b>Generated Narrative: Communication e49ad4b0-537a-442c-b624-e0ae956410da</b></p><a name="e49ad4b0-537a-442c-b624-e0ae956410da"> </a><a name="hce49ad4b0-537a-442c-b624-e0ae956410da"> </a><div style="display: inline-block; background-color: #d9e0e7; padding: 6px; margin: 4px; border: 1px solid #8da1b4; border-radius: 5px; line-height: 60%"><p style="margin-bottom: 0px"/><p style="margin-bottom: 0px">Profile: <a href="http://medcomfhir.dk/ig/carecommunication/5.0.1/StructureDefinition-medcom-careCommunication-communication.html">MedComCareCommunicationversion: null5.0.1)</a></p></div><p><b>identifier</b>: urn:uuid:69ab69e8-af33-4e93-9171-7906ad43c1ab</p><p><b>status</b>: Unknown</p><p><b>category</b>: <span title="Codes:{http://medcomfhir.dk/ig/terminology/CodeSystem/medcom-careCommunication-categoryCodes telemedicine}">Telemedicin</span></p><p><b>subject</b>: <a href="Patient-283b6471-3134-4b7e-9d48-b6fad32e6384.html">Bruno Test Elmer (official) (no stated gender), DoB Unknown ( urn:oid:1.2.208.176.1.2#2509479989)</a></p><blockquote><p><b>payload</b></p><p><b>DateTimeExtension</b>: 2024-08-28 15:20:00+0200</p><p><b>IdentifierExtension</b>: urn:uuid:07f74c3d-b3e5-4054-850e-a8ef8a550c36</p><p><b>PractitionerExtension</b>: <a href="PractitionerRole-67612d44-215b-4441-a35b-b6ab3ab9c9ce.html">PractitionerRole Diætistassistent</a></p><p><b>ContactExtension</b>: <a href="tel:+4512345789">+4512345789</a></p><p><b>content</b>: Til rette vedkommende. Vi ønsker information om de seneste undersøgelser udført på Bruno.
På forhånd tak.
Hilsen Michael Burns
Diætistassistent</p></blockquote></div>
        </text>
        <identifier>
          <value value="urn:uuid:69ab69e8-af33-4e93-9171-7906ad43c1ab"/>
        </identifier>
        <status value="unknown"/>
        <category>
          <coding>
            <system value="http://medcomfhir.dk/ig/terminology/CodeSystem/medcom-careCommunication-categoryCodes"/>
            <code value="telemedicine"/>
          </coding>
        </category>
        <subject>
          <reference value="Patient/283b6471-3134-4b7e-9d48-b6fad32e6384"/>
        </subject>
        <payload>
          <extension url="http://medcomfhir.dk/ig/core/StructureDefinition/medcom-core-datetime-extension">
            <valueDateTime value="2024-08-28T15:20:00+02:00"/>
          </extension>
          <extension url="http://medcomfhir.dk/ig/core/StructureDefinition/medcom-core-identifier-extension">
            <valueIdentifier>
              <value value="urn:uuid:07f74c3d-b3e5-4054-850e-a8ef8a550c36"/>
              <assigner>
                <reference value="Organization/2052a3bd-c32d-4e81-b5ec-83f9ad012899"/>
              </assigner>
            </valueIdentifier>
          </extension>
          <extension url="http://medcomfhir.dk/ig/core/StructureDefinition/medcom-core-practitioner-extension">
            <valueReference>
              <reference value="PractitionerRole/67612d44-215b-4441-a35b-b6ab3ab9c9ce"/>
            </valueReference>
          </extension>
          <extension url="http://medcomfhir.dk/ig/core/StructureDefinition/medcom-core-contact-extension">
            <valueContactPoint>
              <system value="phone"/>
              <value value="+4512345789"/>
            </valueContactPoint>
          </extension>
          <contentString value="Til rette vedkommende. Vi ønsker information om de seneste undersøgelser udført på Bruno.&#xA;På forhånd tak.&#xA;Hilsen Michael Burns&#xA;Diætistassistent"/>
        </payload>
      </Communication>
    </resource>
  </entry>
  <entry>
    <fullUrl value="https://medcomfhir.dk/ig/carecommunication/PractitionerRole/67612d44-215b-4441-a35b-b6ab3ab9c9ce"/>
    <resource>
      <PractitionerRole>
        <id value="67612d44-215b-4441-a35b-b6ab3ab9c9ce"/>
        <meta>
          <profile value="http://medcomfhir.dk/ig/core/StructureDefinition/medcom-core-practitionerrole|3.0.1"/>
        </meta>
        <text>
          <status value="generated"/><div xmlns="http://www.w3.org/1999/xhtml"><a name="PractitionerRole_67612d44-215b-4441-a35b-b6ab3ab9c9ce"> </a><p class="res-header-id"><b>Generated Narrative: PractitionerRole 67612d44-215b-4441-a35b-b6ab3ab9c9ce</b></p><a name="67612d44-215b-4441-a35b-b6ab3ab9c9ce"> </a><a name="hc67612d44-215b-4441-a35b-b6ab3ab9c9ce"> </a><div style="display: inline-block; background-color: #d9e0e7; padding: 6px; margin: 4px; border: 1px solid #8da1b4; border-radius: 5px; line-height: 60%"><p style="margin-bottom: 0px"/><p style="margin-bottom: 0px">Profile: <a href="http://medcomfhir.dk/ig/core/3.0.1/StructureDefinition-medcom-core-practitionerrole.html">MedComCorePractitionerRoleversion: null3.0.1)</a></p></div><p><b>practitioner</b>: <a href="Practitioner-dd46a69e-b2e5-4e0d-9cc4-95259c9722e2.html">Practitioner Michael Burns </a></p><p><b>code</b>: <span title="Codes:{http://medcomfhir.dk/ig/terminology/CodeSystem/medcom-core-PractitionerRolesSKSadministrativ diaetistassistent}">Diætistassistent</span></p></div>
        </text>
        <practitioner>
          <reference value="Practitioner/dd46a69e-b2e5-4e0d-9cc4-95259c9722e2"/>
        </practitioner>
        <code>
          <coding>
            <system value="http://medcomfhir.dk/ig/terminology/CodeSystem/medcom-core-PractitionerRolesSKSadministrativ"/>
            <code value="diaetistassistent"/>
          </coding>
        </code>
      </PractitionerRole>
    </resource>
  </entry>
  <entry>
    <fullUrl value="https://medcomfhir.dk/ig/carecommunication/Practitioner/dd46a69e-b2e5-4e0d-9cc4-95259c9722e2"/>
    <resource>
      <Practitioner>
        <id value="dd46a69e-b2e5-4e0d-9cc4-95259c9722e2"/>
        <meta>
          <profile value="http://medcomfhir.dk/ig/core/StructureDefinition/medcom-core-practitioner|3.0.1"/>
        </meta>
        <text>
          <status value="generated"/><div xmlns="http://www.w3.org/1999/xhtml"><a name="Practitioner_dd46a69e-b2e5-4e0d-9cc4-95259c9722e2"> </a><p class="res-header-id"><b>Generated Narrative: Practitioner dd46a69e-b2e5-4e0d-9cc4-95259c9722e2</b></p><a name="dd46a69e-b2e5-4e0d-9cc4-95259c9722e2"> </a><a name="hcdd46a69e-b2e5-4e0d-9cc4-95259c9722e2"> </a><div style="display: inline-block; background-color: #d9e0e7; padding: 6px; margin: 4px; border: 1px solid #8da1b4; border-radius: 5px; line-height: 60%"><p style="margin-bottom: 0px"/><p style="margin-bottom: 0px">Profile: <a href="http://medcomfhir.dk/ig/core/3.0.1/StructureDefinition-medcom-core-practitioner.html">MedComCorePractitionerversion: null3.0.1)</a></p></div><p><b>name</b>: Michael Burns </p></div>
        </text>
        <name>
          <family value="Burns"/>
          <given value="Michael"/>
        </name>
      </Practitioner>
    </resource>
  </entry>
  <entry>
    <fullUrl value="https://medcomfhir.dk/ig/carecommunication/Organization/2052a3bd-c32d-4e81-b5ec-83f9ad012899"/>
    <resource>
      <Organization>
        <id value="2052a3bd-c32d-4e81-b5ec-83f9ad012899"/>
        <meta>
          <profile value="http://medcomfhir.dk/ig/messaging/StructureDefinition/medcom-messaging-organization|4.0.1"/>
        </meta>
        <text>
          <status value="generated"/><div xmlns="http://www.w3.org/1999/xhtml"><a name="Organization_2052a3bd-c32d-4e81-b5ec-83f9ad012899"> </a><p class="res-header-id"><b>Generated Narrative: Organization 2052a3bd-c32d-4e81-b5ec-83f9ad012899</b></p><a name="2052a3bd-c32d-4e81-b5ec-83f9ad012899"> </a><a name="hc2052a3bd-c32d-4e81-b5ec-83f9ad012899"> </a><div style="display: inline-block; background-color: #d9e0e7; padding: 6px; margin: 4px; border: 1px solid #8da1b4; border-radius: 5px; line-height: 60%"><p style="margin-bottom: 0px"/><p style="margin-bottom: 0px">Profile: <a href="http://medcomfhir.dk/ig/messaging/4.0.1/StructureDefinition-medcom-messaging-organization.html">MedComMessagingOrganizationversion: null4.0.1)</a></p></div><p><b>identifier</b>: <code>https://www.gs1.org/gln</code>/5790001987244, <code>urn:oid:1.2.208.176.1.1</code>/441211000016000</p><p><b>name</b>: Klinik for Ældresygdomme, AUH, Skejby</p></div>
        </text>
        <identifier>
          <system value="https://www.gs1.org/gln"/>
          <value value="5790001987244"/>
        </identifier>
        <identifier>
          <system value="urn:oid:1.2.208.176.1.1"/>
          <value value="441211000016000"/>
        </identifier>
        <name value="Klinik for Ældresygdomme, AUH, Skejby"/>
      </Organization>
    </resource>
  </entry>
  <entry>
    <fullUrl value="https://medcomfhir.dk/ig/carecommunication/Organization/996df80d-e9d3-4885-aad1-8609ad459a16"/>
    <resource>
      <Organization>
        <id value="996df80d-e9d3-4885-aad1-8609ad459a16"/>
        <meta>
          <profile value="http://medcomfhir.dk/ig/messaging/StructureDefinition/medcom-messaging-organization|4.0.1"/>
        </meta>
        <text>
          <status value="generated"/><div xmlns="http://www.w3.org/1999/xhtml"><a name="Organization_996df80d-e9d3-4885-aad1-8609ad459a16"> </a><p class="res-header-id"><b>Generated Narrative: Organization 996df80d-e9d3-4885-aad1-8609ad459a16</b></p><a name="996df80d-e9d3-4885-aad1-8609ad459a16"> </a><a name="hc996df80d-e9d3-4885-aad1-8609ad459a16"> </a><div style="display: inline-block; background-color: #d9e0e7; padding: 6px; margin: 4px; border: 1px solid #8da1b4; border-radius: 5px; line-height: 60%"><p style="margin-bottom: 0px"/><p style="margin-bottom: 0px">Profile: <a href="http://medcomfhir.dk/ig/messaging/4.0.1/StructureDefinition-medcom-messaging-organization.html">MedComMessagingOrganizationversion: null4.0.1)</a></p></div><p><b>identifier</b>: <code>https://www.gs1.org/gln</code>/5790001353308, <code>urn:oid:1.2.208.176.1.1</code>/330461000016004</p><p><b>name</b>: Sundhedsplejen, Aabenraa kommune</p></div>
        </text>
        <identifier>
          <system value="https://www.gs1.org/gln"/>
          <value value="5790001353308"/>
        </identifier>
        <identifier>
          <system value="urn:oid:1.2.208.176.1.1"/>
          <value value="330461000016004"/>
        </identifier>
        <name value="Sundhedsplejen, Aabenraa kommune"/>
      </Organization>
    </resource>
  </entry>
  <entry>
    <fullUrl value="https://medcomfhir.dk/ig/carecommunication/Provenance/1cff1fd0-44a1-4246-a96c-41db3bb25bbe"/>
    <resource>
      <Provenance>
        <id value="1cff1fd0-44a1-4246-a96c-41db3bb25bbe"/>
        <meta>
          <profile value="http://medcomfhir.dk/ig/carecommunication/StructureDefinition/medcom-careCommunication-provenance"/>
        </meta>
        <text>
          <status value="generated"/><div xmlns="http://www.w3.org/1999/xhtml"><a name="Provenance_1cff1fd0-44a1-4246-a96c-41db3bb25bbe"> </a><p class="res-header-id"><b>Generated Narrative: Provenance 1cff1fd0-44a1-4246-a96c-41db3bb25bbe</b></p><a name="1cff1fd0-44a1-4246-a96c-41db3bb25bbe"> </a><a name="hc1cff1fd0-44a1-4246-a96c-41db3bb25bbe"> </a><div style="display: inline-block; background-color: #d9e0e7; padding: 6px; margin: 4px; border: 1px solid #8da1b4; border-radius: 5px; line-height: 60%"><p style="margin-bottom: 0px"/><p style="margin-bottom: 0px">Profile: <a href="http://medcomfhir.dk/ig/carecommunication/5.0.1/StructureDefinition-medcom-careCommunication-provenance.html">MedComCareCommunicationProvenance</a></p></div><p>Provenance for <a href="MessageHeader-559e4be0-e1f2-4371-969d-29bbbd5ca9d1.html">MessageHeader: event[x] = Care Communication Message (MedComMessagingEventCodes#care-communication-message); definition = http://medcomfhir.dk/ig/messagedefinitions/MessageDefinition/MedComCareCommunicationMessageDefinition|5.0</a></p><p>Summary</p><table class="grid"><tr><td>Occurrence</td><td>2024-08-28 15:20:00+0200</td></tr><tr><td>Recorded</td><td>2024-08-28 15:20:00+0200</td></tr><tr><td>Activity</td><td><span title="Codes:{http://medcomfhir.dk/ig/terminology/CodeSystem/medcom-messaging-activityCodes new-message}">A new message has been sent</span></td></tr></table><p><b>Agents</b></p><table class="grid"><tr><td><b>who</b></td></tr><tr><td><a href="Organization-2052a3bd-c32d-4e81-b5ec-83f9ad012899.html">Organization Klinik for Ældresygdomme, AUH, Skejby</a></td></tr></table></div>
        </text>
        <target>
          <reference value="MessageHeader/559e4be0-e1f2-4371-969d-29bbbd5ca9d1"/>
        </target>
        <occurredDateTime value="2024-08-28T15:20:00+02:00"/>
        <recorded value="2024-08-28T15:20:00+02:00"/>
        <activity>
          <coding>
            <system value="http://medcomfhir.dk/ig/terminology/CodeSystem/medcom-messaging-activityCodes"/>
            <code value="new-message"/>
          </coding>
        </activity>
        <agent>
          <who>
            <reference value="Organization/2052a3bd-c32d-4e81-b5ec-83f9ad012899"/>
          </who>
        </agent>
        <entity>
          <role value="source"/>
          <what>
            <identifier>
              <value value="urn:uuid:07f74c3d-b3e5-4054-850e-a8ef8a550c36"/>
            </identifier>
          </what>
        </entity>
      </Provenance>
    </resource>
  </entry>
</Bundle>