<?xml version="1.0" encoding="UTF-8"?>

<Bundle xmlns="http://hl7.org/fhir">
  <id value="R-Tek-H-3e047a9d-c86a-4828-b686-6a80403df5eb"/>
  <meta>
    <profile value="http://medcomfhir.dk/ig/carecommunication/StructureDefinition/medcom-careCommunication-message"/>
  </meta>
  <type value="message"/>
  <timestamp value="2024-08-24T12:30:00+02:00"/>
  <entry>
    <fullUrl value="https://medcomfhir.dk/ig/carecommunication/MessageHeader/2414b445-665f-41af-9ecd-b97c0b58c081"/>
    <resource>
      <MessageHeader>
        <id value="2414b445-665f-41af-9ecd-b97c0b58c081"/>
        <meta>
          <profile value="http://medcomfhir.dk/ig/carecommunication/StructureDefinition/medcom-careCommunication-messageHeader"/>
        </meta>
        <text>
          <status value="generated"/><div xmlns="http://www.w3.org/1999/xhtml"><a name="MessageHeader_2414b445-665f-41af-9ecd-b97c0b58c081"> </a><p class="res-header-id"><b>Generated Narrative: MessageHeader 2414b445-665f-41af-9ecd-b97c0b58c081</b></p><a name="2414b445-665f-41af-9ecd-b97c0b58c081"> </a><a name="hc2414b445-665f-41af-9ecd-b97c0b58c081"> </a><div style="display: inline-block; background-color: #d9e0e7; padding: 6px; margin: 4px; border: 1px solid #8da1b4; border-radius: 5px; line-height: 60%"><p style="margin-bottom: 0px"/><p style="margin-bottom: 0px">Profile: <a href="http://medcomfhir.dk/ig/carecommunication/5.0.0/StructureDefinition-medcom-careCommunication-messageHeader.html">MedComCareCommunicationMessageHeader</a></p></div><p><b>event</b>: <a href="http://medcomfhir.dk/ig/terminology/1.8.1/CodeSystem-medcom-messaging-eventCodes.html#medcom-messaging-eventCodes-care-communication-message">MedComMessagingEventCodes care-communication-message</a>: Care Communication Message</p><h3>Destinations</h3><table class="grid"><tr><td style="display: none">-</td><td><b>Extension</b></td><td><b>Endpoint</b></td><td><b>Receiver</b></td></tr><tr><td style="display: none">*</td><td/><td><a href="https://sor2.sum.dsdn.dk/#id=382871000016004">https://sor2.sum.dsdn.dk/#id=382871000016004</a></td><td><a href="Organization-966bc46d-f02f-4be3-a44a-d47ebdf4fdad.html">Organization Arden Lægehus</a></td></tr></table><p><b>sender</b>: <a href="Organization-55b3ef79-9e10-4b52-9d94-6c97ff5a0999.html">Organization Hjerteafdelingen på Herlev og Gentofte hospital</a></p><h3>Sources</h3><table class="grid"><tr><td style="display: none">-</td><td><b>Endpoint</b></td></tr><tr><td style="display: none">*</td><td><a href="https://sor2.sum.dsdn.dk/#id=265161000016000">https://sor2.sum.dsdn.dk/#id=265161000016000</a></td></tr></table><p><b>focus</b>: <a href="Communication-9e829a72-32b2-4810-a56e-1e8f3a81e888.html">Communication: identifier = urn:uuid:d6d721a1-f4ec-4906-8946-ef808525bef1; status = unknown; category = Undersøgelsessvar; topic = </a></p><p><b>definition</b>: <a href="http://medcomfhir.dk/ig/messagedefinitions/1.0.0/MessageDefinition-MedComCareCommunicationMessageDefinitionV5.0.html">http://medcomfhir.dk/ig/messagedefinitions/MessageDefinition/MedComCareCommunicationMessageDefinition|5.0</a></p></div>
        </text>
        <eventCoding>
          <system value="http://medcomfhir.dk/ig/terminology/CodeSystem/medcom-messaging-eventCodes"/>
          <code value="care-communication-message"/>
        </eventCoding>
        <destination>
          <extension url="http://medcomfhir.dk/ig/messaging/StructureDefinition/medcom-messaging-destinationUseExtension">
            <valueCoding>
              <system value="http://medcomfhir.dk/ig/terminology/CodeSystem/medcom-messaging-destinationUse"/>
              <code value="primary"/>
            </valueCoding>
          </extension>
          <endpoint value="https://sor2.sum.dsdn.dk/#id=382871000016004"/>
          <receiver>
            <reference value="Organization/966bc46d-f02f-4be3-a44a-d47ebdf4fdad"/>
          </receiver>
        </destination>
        <sender>
          <reference value="Organization/55b3ef79-9e10-4b52-9d94-6c97ff5a0999"/>
        </sender>
        <source>
          <endpoint value="https://sor2.sum.dsdn.dk/#id=265161000016000"/>
        </source>
        <focus>
          <reference value="Communication/9e829a72-32b2-4810-a56e-1e8f3a81e888"/>
        </focus>
        <definition value="http://medcomfhir.dk/ig/messagedefinitions/MessageDefinition/MedComCareCommunicationMessageDefinition|5.0"/>
      </MessageHeader>
    </resource>
  </entry>
  <entry>
    <fullUrl value="https://medcomfhir.dk/ig/carecommunication/Patient/b7fed758-bfdd-4c21-bfca-bb0b4b7081a0"/>
    <resource>
      <Patient>
        <id value="b7fed758-bfdd-4c21-bfca-bb0b4b7081a0"/>
        <meta>
          <profile value="http://medcomfhir.dk/ig/core/StructureDefinition/medcom-core-patient"/>
        </meta>
        <text>
          <status value="generated"/><div xmlns="http://www.w3.org/1999/xhtml"><a name="Patient_b7fed758-bfdd-4c21-bfca-bb0b4b7081a0"> </a><p class="res-header-id"><b>Generated Narrative: Patient b7fed758-bfdd-4c21-bfca-bb0b4b7081a0</b></p><a name="b7fed758-bfdd-4c21-bfca-bb0b4b7081a0"> </a><a name="hcb7fed758-bfdd-4c21-bfca-bb0b4b7081a0"> </a><div style="display: inline-block; background-color: #d9e0e7; padding: 6px; margin: 4px; border: 1px solid #8da1b4; border-radius: 5px; line-height: 60%"><p style="margin-bottom: 0px"/><p style="margin-bottom: 0px">Profile: <a href="http://medcomfhir.dk/ig/core/3.0.0/StructureDefinition-medcom-core-patient.html">MedComCorePatient</a></p></div><p style="border: 1px #661aff solid; background-color: #e6e6ff; padding: 10px;">Peter Hansen (official) (no stated gender), DoB Unknown ( urn:oid:1.2.208.176.1.6.1.1#0703921VJ5)</p><hr/></div>
        </text>
        <identifier>
          <system value="urn:oid:1.2.208.176.1.6.1.1"/>
          <value value="0703921VJ5"/>
        </identifier>
        <name>
          <use value="official"/>
          <family value="Hansen"/>
          <given value="Peter"/>
        </name>
      </Patient>
    </resource>
  </entry>
  <entry>
    <fullUrl value="https://medcomfhir.dk/ig/carecommunication/Communication/9e829a72-32b2-4810-a56e-1e8f3a81e888"/>
    <resource>
      <Communication>
        <id value="9e829a72-32b2-4810-a56e-1e8f3a81e888"/>
        <meta>
          <profile value="http://medcomfhir.dk/ig/carecommunication/StructureDefinition/medcom-careCommunication-communication"/>
        </meta>
        <text>
          <status value="extensions"/><div xmlns="http://www.w3.org/1999/xhtml"><a name="Communication_9e829a72-32b2-4810-a56e-1e8f3a81e888"> </a><p class="res-header-id"><b>Generated Narrative: Communication 9e829a72-32b2-4810-a56e-1e8f3a81e888</b></p><a name="9e829a72-32b2-4810-a56e-1e8f3a81e888"> </a><a name="hc9e829a72-32b2-4810-a56e-1e8f3a81e888"> </a><div style="display: inline-block; background-color: #d9e0e7; padding: 6px; margin: 4px; border: 1px solid #8da1b4; border-radius: 5px; line-height: 60%"><p style="margin-bottom: 0px"/><p style="margin-bottom: 0px">Profile: <a href="http://medcomfhir.dk/ig/carecommunication/5.0.0/StructureDefinition-medcom-careCommunication-communication.html">MedComCareCommunication</a></p></div><p><b>identifier</b>: urn:uuid:d6d721a1-f4ec-4906-8946-ef808525bef1</p><p><b>status</b>: Unknown</p><p><b>category</b>: <span title="Codes:{http://medcomfhir.dk/ig/terminology/CodeSystem/medcom-careCommunication-categoryCodes examination-results}">Undersøgelsessvar</span></p><p><b>subject</b>: <a href="Patient-b7fed758-bfdd-4c21-bfca-bb0b4b7081a0.html">Peter Hansen (official) (no stated gender), DoB Unknown ( urn:oid:1.2.208.176.1.6.1.1#0703921VJ5)</a></p><p><b>topic</b>: <span title="Codes:">Forspørgsel på seneste resultater</span></p><blockquote><p><b>payload</b></p><p><b>DateTimeExtension</b>: 2024-08-24 12:00:00+0200</p><p><b>IdentifierExtension</b>: urn:uuid:67ebe566-c20e-4885-8fff-5552875ef74c</p><p><b>PractitionerExtension</b>: <a href="PractitionerRole-569a1bff-55a1-4868-a7b4-80fedb2066e3.html">PractitionerRole Sygeplejerske</a></p><p><b>ContactExtension</b>: ph: 38683868</p><p><b>content</b>: Til rette vedkommende. Vi ønsker information om de seneste undersøgelser udført på Bruno. På forhånd tak.
Hilsen Michael Burns
Sygeplejerske</p></blockquote><blockquote><p><b>payload</b></p><p><b>DateTimeExtension</b>: 2024-08-24 12:30:00+0200</p><p><b>IdentifierExtension</b>: urn:uuid:ac353781-0e43-447d-80f4-d090028abcc1</p><p><b>PractitionerExtension</b>: <a href="PractitionerRole-d4f0bfb0-06c7-4c52-948f-6cda9ba17a0a.html">PractitionerRole Social- og sundhedsmedhjælper</a></p><p><b>ContactExtension</b>: ph: 38683868</p><p><b>content</b>: Michael glemte lige at skrive, at der også skulle være udført en røntgenundersøgelse som vi også ønsker informationer om.
Vh. Eva
Social og sundhedshjælper</p></blockquote></div>
        </text>
        <identifier>
          <value value="urn:uuid:d6d721a1-f4ec-4906-8946-ef808525bef1"/>
        </identifier>
        <status value="unknown"/>
        <category>
          <coding>
            <system value="http://medcomfhir.dk/ig/terminology/CodeSystem/medcom-careCommunication-categoryCodes"/>
            <code value="examination-results"/>
          </coding>
        </category>
        <subject>
          <reference value="Patient/b7fed758-bfdd-4c21-bfca-bb0b4b7081a0"/>
        </subject>
        <topic>
          <text value="Forspørgsel på seneste resultater"/>
        </topic>
        <payload>
          <extension url="http://medcomfhir.dk/ig/core/StructureDefinition/medcom-core-datetime-extension">
            <valueDateTime value="2024-08-24T12:00:00+02:00"/>
          </extension>
          <extension url="http://medcomfhir.dk/ig/core/StructureDefinition/medcom-core-identifier-extension">
            <valueIdentifier>
              <value value="urn:uuid:67ebe566-c20e-4885-8fff-5552875ef74c"/>
              <assigner>
                <reference value="Organization/55b3ef79-9e10-4b52-9d94-6c97ff5a0999"/>
              </assigner>
            </valueIdentifier>
          </extension>
          <extension url="http://medcomfhir.dk/ig/core/StructureDefinition/medcom-core-practitioner-extension">
            <valueReference>
              <reference value="PractitionerRole/569a1bff-55a1-4868-a7b4-80fedb2066e3"/>
            </valueReference>
          </extension>
          <extension url="http://medcomfhir.dk/ig/core/StructureDefinition/medcom-core-contact-extension">
            <valueContactPoint>
              <system value="phone"/>
              <value value="38683868"/>
            </valueContactPoint>
          </extension>
          <contentString value="Til rette vedkommende. Vi ønsker information om de seneste undersøgelser udført på Bruno. På forhånd tak.&#xA;Hilsen Michael Burns&#xA;Sygeplejerske"/>
        </payload>
        <payload>
          <extension url="http://medcomfhir.dk/ig/core/StructureDefinition/medcom-core-datetime-extension">
            <valueDateTime value="2024-08-24T12:30:00+02:00"/>
          </extension>
          <extension url="http://medcomfhir.dk/ig/core/StructureDefinition/medcom-core-identifier-extension">
            <valueIdentifier>
              <value value="urn:uuid:ac353781-0e43-447d-80f4-d090028abcc1"/>
              <assigner>
                <reference value="Organization/55b3ef79-9e10-4b52-9d94-6c97ff5a0999"/>
              </assigner>
            </valueIdentifier>
          </extension>
          <extension url="http://medcomfhir.dk/ig/core/StructureDefinition/medcom-core-practitioner-extension">
            <valueReference>
              <reference value="PractitionerRole/d4f0bfb0-06c7-4c52-948f-6cda9ba17a0a"/>
            </valueReference>
          </extension>
          <extension url="http://medcomfhir.dk/ig/core/StructureDefinition/medcom-core-contact-extension">
            <valueContactPoint>
              <system value="phone"/>
              <value value="38683868"/>
            </valueContactPoint>
          </extension>
          <contentString value="Michael glemte lige at skrive, at der også skulle være udført en røntgenundersøgelse som vi også ønsker informationer om.&#xA;Vh. Eva&#xA;Social og sundhedshjælper"/>
        </payload>
      </Communication>
    </resource>
  </entry>
  <entry>
    <fullUrl value="https://medcomfhir.dk/ig/carecommunication/PractitionerRole/569a1bff-55a1-4868-a7b4-80fedb2066e3"/>
    <resource>
      <PractitionerRole>
        <id value="569a1bff-55a1-4868-a7b4-80fedb2066e3"/>
        <meta>
          <profile value="http://medcomfhir.dk/ig/core/StructureDefinition/medcom-core-practitionerrole"/>
        </meta>
        <text>
          <status value="generated"/><div xmlns="http://www.w3.org/1999/xhtml"><a name="PractitionerRole_569a1bff-55a1-4868-a7b4-80fedb2066e3"> </a><p class="res-header-id"><b>Generated Narrative: PractitionerRole 569a1bff-55a1-4868-a7b4-80fedb2066e3</b></p><a name="569a1bff-55a1-4868-a7b4-80fedb2066e3"> </a><a name="hc569a1bff-55a1-4868-a7b4-80fedb2066e3"> </a><div style="display: inline-block; background-color: #d9e0e7; padding: 6px; margin: 4px; border: 1px solid #8da1b4; border-radius: 5px; line-height: 60%"><p style="margin-bottom: 0px"/><p style="margin-bottom: 0px">Profile: <a href="http://medcomfhir.dk/ig/core/3.0.0/StructureDefinition-medcom-core-practitionerrole.html">MedComCorePractitionerRole</a></p></div><p><b>practitioner</b>: <a href="Practitioner-a28e0818-2957-4d60-bc86-41d236bf23db.html">Practitioner Michael Burns </a></p><p><b>code</b>: <span title="Codes:{http://medcomfhir.dk/ig/terminology/CodeSystem/medcom-core-PractitionerRolesSKSadministrativ sygeplejerske}">Sygeplejerske</span></p></div>
        </text>
        <practitioner>
          <reference value="Practitioner/a28e0818-2957-4d60-bc86-41d236bf23db"/>
        </practitioner>
        <code>
          <coding>
            <system value="http://medcomfhir.dk/ig/terminology/CodeSystem/medcom-core-PractitionerRolesSKSadministrativ"/>
            <code value="sygeplejerske"/>
          </coding>
        </code>
      </PractitionerRole>
    </resource>
  </entry>
  <entry>
    <fullUrl value="https://medcomfhir.dk/ig/carecommunication/Practitioner/a28e0818-2957-4d60-bc86-41d236bf23db"/>
    <resource>
      <Practitioner>
        <id value="a28e0818-2957-4d60-bc86-41d236bf23db"/>
        <meta>
          <profile value="http://medcomfhir.dk/ig/core/StructureDefinition/medcom-core-practitioner"/>
        </meta>
        <text>
          <status value="generated"/><div xmlns="http://www.w3.org/1999/xhtml"><a name="Practitioner_a28e0818-2957-4d60-bc86-41d236bf23db"> </a><p class="res-header-id"><b>Generated Narrative: Practitioner a28e0818-2957-4d60-bc86-41d236bf23db</b></p><a name="a28e0818-2957-4d60-bc86-41d236bf23db"> </a><a name="hca28e0818-2957-4d60-bc86-41d236bf23db"> </a><div style="display: inline-block; background-color: #d9e0e7; padding: 6px; margin: 4px; border: 1px solid #8da1b4; border-radius: 5px; line-height: 60%"><p style="margin-bottom: 0px"/><p style="margin-bottom: 0px">Profile: <a href="http://medcomfhir.dk/ig/core/3.0.0/StructureDefinition-medcom-core-practitioner.html">MedComCorePractitioner</a></p></div><p><b>name</b>: Michael Burns </p></div>
        </text>
        <name>
          <family value="Burns"/>
          <given value="Michael"/>
        </name>
      </Practitioner>
    </resource>
  </entry>
  <entry>
    <fullUrl value="https://medcomfhir.dk/ig/carecommunication/Organization/966bc46d-f02f-4be3-a44a-d47ebdf4fdad"/>
    <resource>
      <Organization>
        <id value="966bc46d-f02f-4be3-a44a-d47ebdf4fdad"/>
        <meta>
          <profile value="http://medcomfhir.dk/ig/messaging/StructureDefinition/medcom-messaging-organization"/>
        </meta>
        <text>
          <status value="generated"/><div xmlns="http://www.w3.org/1999/xhtml"><a name="Organization_966bc46d-f02f-4be3-a44a-d47ebdf4fdad"> </a><p class="res-header-id"><b>Generated Narrative: Organization 966bc46d-f02f-4be3-a44a-d47ebdf4fdad</b></p><a name="966bc46d-f02f-4be3-a44a-d47ebdf4fdad"> </a><a name="hc966bc46d-f02f-4be3-a44a-d47ebdf4fdad"> </a><div style="display: inline-block; background-color: #d9e0e7; padding: 6px; margin: 4px; border: 1px solid #8da1b4; border-radius: 5px; line-height: 60%"><p style="margin-bottom: 0px"/><p style="margin-bottom: 0px">Profile: <a href="http://medcomfhir.dk/ig/messaging/4.0.0/StructureDefinition-medcom-messaging-organization.html">MedComMessagingOrganization</a></p></div><p><b>identifier</b>: <code>https://www.gs1.org/gln</code>/5790001387419, <code>urn:oid:1.2.208.176.1.1</code>/382871000016004</p><p><b>name</b>: Arden Lægehus</p></div>
        </text>
        <identifier>
          <system value="https://www.gs1.org/gln"/>
          <value value="5790001387419"/>
        </identifier>
        <identifier>
          <system value="urn:oid:1.2.208.176.1.1"/>
          <value value="382871000016004"/>
        </identifier>
        <name value="Arden Lægehus"/>
      </Organization>
    </resource>
  </entry>
  <entry>
    <fullUrl value="https://medcomfhir.dk/ig/carecommunication/Organization/55b3ef79-9e10-4b52-9d94-6c97ff5a0999"/>
    <resource>
      <Organization>
        <id value="55b3ef79-9e10-4b52-9d94-6c97ff5a0999"/>
        <meta>
          <profile value="http://medcomfhir.dk/ig/messaging/StructureDefinition/medcom-messaging-organization"/>
        </meta>
        <text>
          <status value="generated"/><div xmlns="http://www.w3.org/1999/xhtml"><a name="Organization_55b3ef79-9e10-4b52-9d94-6c97ff5a0999"> </a><p class="res-header-id"><b>Generated Narrative: Organization 55b3ef79-9e10-4b52-9d94-6c97ff5a0999</b></p><a name="55b3ef79-9e10-4b52-9d94-6c97ff5a0999"> </a><a name="hc55b3ef79-9e10-4b52-9d94-6c97ff5a0999"> </a><div style="display: inline-block; background-color: #d9e0e7; padding: 6px; margin: 4px; border: 1px solid #8da1b4; border-radius: 5px; line-height: 60%"><p style="margin-bottom: 0px"/><p style="margin-bottom: 0px">Profile: <a href="http://medcomfhir.dk/ig/messaging/4.0.0/StructureDefinition-medcom-messaging-organization.html">MedComMessagingOrganization</a></p></div><p><b>identifier</b>: <code>https://www.gs1.org/gln</code>/5790000209354, <code>urn:oid:1.2.208.176.1.1</code>/265161000016000</p><p><b>name</b>: Hjerteafdelingen på Herlev og Gentofte hospital</p></div>
        </text>
        <identifier>
          <system value="https://www.gs1.org/gln"/>
          <value value="5790000209354"/>
        </identifier>
        <identifier>
          <system value="urn:oid:1.2.208.176.1.1"/>
          <value value="265161000016000"/>
        </identifier>
        <name value="Hjerteafdelingen på Herlev og Gentofte hospital"/>
      </Organization>
    </resource>
  </entry>
  <entry>
    <fullUrl value="https://medcomfhir.dk/ig/carecommunication/Provenance/61f5b1c7-c342-48c7-b7ee-81fcf6f01f0e"/>
    <resource>
      <Provenance>
        <id value="61f5b1c7-c342-48c7-b7ee-81fcf6f01f0e"/>
        <meta>
          <profile value="http://medcomfhir.dk/ig/carecommunication/StructureDefinition/medcom-careCommunication-provenance"/>
        </meta>
        <text>
          <status value="generated"/><div xmlns="http://www.w3.org/1999/xhtml"><a name="Provenance_61f5b1c7-c342-48c7-b7ee-81fcf6f01f0e"> </a><p class="res-header-id"><b>Generated Narrative: Provenance 61f5b1c7-c342-48c7-b7ee-81fcf6f01f0e</b></p><a name="61f5b1c7-c342-48c7-b7ee-81fcf6f01f0e"> </a><a name="hc61f5b1c7-c342-48c7-b7ee-81fcf6f01f0e"> </a><div style="display: inline-block; background-color: #d9e0e7; padding: 6px; margin: 4px; border: 1px solid #8da1b4; border-radius: 5px; line-height: 60%"><p style="margin-bottom: 0px"/><p style="margin-bottom: 0px">Profile: <a href="http://medcomfhir.dk/ig/carecommunication/5.0.0/StructureDefinition-medcom-careCommunication-provenance.html">MedComCareCommunicationProvenance</a></p></div><p>Provenance for <a href="MessageHeader-2414b445-665f-41af-9ecd-b97c0b58c081.html">MessageHeader: event[x] = Care Communication Message (MedComMessagingEventCodes#care-communication-message); definition = http://medcomfhir.dk/ig/messagedefinitions/MessageDefinition/MedComCareCommunicationMessageDefinition|5.0</a></p><p>Summary</p><table class="grid"><tr><td>Occurrence</td><td>2024-08-24 12:30:00+0200</td></tr><tr><td>Recorded</td><td>2024-08-24 12:30:00+0200</td></tr><tr><td>Activity</td><td><span title="Codes:{http://medcomfhir.dk/ig/terminology/CodeSystem/medcom-messaging-activityCodes reply-message}">A message has been replied to</span></td></tr></table><p><b>Agents</b></p><table class="grid"><tr><td><b>who</b></td></tr><tr><td><a href="Organization-55b3ef79-9e10-4b52-9d94-6c97ff5a0999.html">Organization Hjerteafdelingen på Herlev og Gentofte hospital</a></td></tr></table></div>
        </text>
        <target>
          <reference value="MessageHeader/2414b445-665f-41af-9ecd-b97c0b58c081"/>
        </target>
        <occurredDateTime value="2024-08-24T12:30:00+02:00"/>
        <recorded value="2024-08-24T12:30:00+02:00"/>
        <activity>
          <coding>
            <system value="http://medcomfhir.dk/ig/terminology/CodeSystem/medcom-messaging-activityCodes"/>
            <code value="reply-message"/>
          </coding>
        </activity>
        <agent>
          <who>
            <reference value="Organization/55b3ef79-9e10-4b52-9d94-6c97ff5a0999"/>
          </who>
        </agent>
        <entity>
          <role value="source"/>
          <what>
            <identifier>
              <value value="urn:uuid:ac353781-0e43-447d-80f4-d090028abcc1"/>
            </identifier>
          </what>
        </entity>
        <entity>
          <role value="revision"/>
          <what>
            <reference value="MessageHeader/8f537c84-17f9-4fd1-a3d6-3d4008d6c6ec"/>
          </what>
        </entity>
      </Provenance>
    </resource>
  </entry>
  <entry>
    <fullUrl value="https://medcomfhir.dk/ig/carecommunication/Provenance/0696ca09-5213-4b6c-98e6-0d7c05c16080"/>
    <resource>
      <Provenance>
        <id value="0696ca09-5213-4b6c-98e6-0d7c05c16080"/>
        <meta>
          <profile value="http://medcomfhir.dk/ig/carecommunication/StructureDefinition/medcom-careCommunication-provenance"/>
        </meta>
        <text>
          <status value="generated"/><div xmlns="http://www.w3.org/1999/xhtml"><a name="Provenance_0696ca09-5213-4b6c-98e6-0d7c05c16080"> </a><p class="res-header-id"><b>Generated Narrative: Provenance 0696ca09-5213-4b6c-98e6-0d7c05c16080</b></p><a name="0696ca09-5213-4b6c-98e6-0d7c05c16080"> </a><a name="hc0696ca09-5213-4b6c-98e6-0d7c05c16080"> </a><div style="display: inline-block; background-color: #d9e0e7; padding: 6px; margin: 4px; border: 1px solid #8da1b4; border-radius: 5px; line-height: 60%"><p style="margin-bottom: 0px"/><p style="margin-bottom: 0px">Profile: <a href="http://medcomfhir.dk/ig/carecommunication/5.0.0/StructureDefinition-medcom-careCommunication-provenance.html">MedComCareCommunicationProvenance</a></p></div><p>Provenance for <a href="MessageHeader-8f537c84-17f9-4fd1-a3d6-3d4008d6c6ec.html">MessageHeader: event[x] = Care Communication Message (MedComMessagingEventCodes#care-communication-message); definition = http://medcomfhir.dk/ig/messagedefinitions/MessageDefinition/MedComCareCommunicationMessageDefinition|5.0</a></p><p>Summary</p><table class="grid"><tr><td>Occurrence</td><td>2024-08-24 12:00:00+0200</td></tr><tr><td>Recorded</td><td>2024-08-24 12:00:00+0200</td></tr><tr><td>Activity</td><td><span title="Codes:{http://medcomfhir.dk/ig/terminology/CodeSystem/medcom-messaging-activityCodes new-message}">A new message has been sent</span></td></tr></table><p><b>Agents</b></p><table class="grid"><tr><td><b>who</b></td></tr><tr><td><a href="Organization-55b3ef79-9e10-4b52-9d94-6c97ff5a0999.html">Organization Hjerteafdelingen på Herlev og Gentofte hospital</a></td></tr></table></div>
        </text>
        <target>
          <reference value="MessageHeader/8f537c84-17f9-4fd1-a3d6-3d4008d6c6ec"/>
        </target>
        <occurredDateTime value="2024-08-24T12:00:00+02:00"/>
        <recorded value="2024-08-24T12:00:00+02:00"/>
        <activity>
          <coding>
            <system value="http://medcomfhir.dk/ig/terminology/CodeSystem/medcom-messaging-activityCodes"/>
            <code value="new-message"/>
          </coding>
        </activity>
        <agent>
          <who>
            <reference value="Organization/55b3ef79-9e10-4b52-9d94-6c97ff5a0999"/>
          </who>
        </agent>
        <entity>
          <role value="source"/>
          <what>
            <identifier>
              <value value="urn:uuid:67ebe566-c20e-4885-8fff-5552875ef74c"/>
            </identifier>
          </what>
        </entity>
      </Provenance>
    </resource>
  </entry>
  <entry>
    <fullUrl value="https://medcomfhir.dk/ig/carecommunication/PractitionerRole/d4f0bfb0-06c7-4c52-948f-6cda9ba17a0a"/>
    <resource>
      <PractitionerRole>
        <id value="d4f0bfb0-06c7-4c52-948f-6cda9ba17a0a"/>
        <meta>
          <profile value="http://medcomfhir.dk/ig/core/StructureDefinition/medcom-core-practitionerrole"/>
        </meta>
        <text>
          <status value="generated"/><div xmlns="http://www.w3.org/1999/xhtml"><a name="PractitionerRole_d4f0bfb0-06c7-4c52-948f-6cda9ba17a0a"> </a><p class="res-header-id"><b>Generated Narrative: PractitionerRole d4f0bfb0-06c7-4c52-948f-6cda9ba17a0a</b></p><a name="d4f0bfb0-06c7-4c52-948f-6cda9ba17a0a"> </a><a name="hcd4f0bfb0-06c7-4c52-948f-6cda9ba17a0a"> </a><div style="display: inline-block; background-color: #d9e0e7; padding: 6px; margin: 4px; border: 1px solid #8da1b4; border-radius: 5px; line-height: 60%"><p style="margin-bottom: 0px"/><p style="margin-bottom: 0px">Profile: <a href="http://medcomfhir.dk/ig/core/3.0.0/StructureDefinition-medcom-core-practitionerrole.html">MedComCorePractitionerRole</a></p></div><p><b>practitioner</b>: <a href="Practitioner-72ef9b22-ea18-4222-8f13-7e79b0d76257.html">Practitioner Eva Petersen </a></p><p><b>code</b>: <span title="Codes:{http://medcomfhir.dk/ig/terminology/CodeSystem/medcom-core-PractitionerRolesSKSadministrativ socialogsundhedsmedhjaelper}">Social- og sundhedsmedhjælper</span></p></div>
        </text>
        <practitioner>
          <reference value="Practitioner/72ef9b22-ea18-4222-8f13-7e79b0d76257"/>
        </practitioner>
        <code>
          <coding>
            <system value="http://medcomfhir.dk/ig/terminology/CodeSystem/medcom-core-PractitionerRolesSKSadministrativ"/>
            <code value="socialogsundhedsmedhjaelper"/>
          </coding>
        </code>
      </PractitionerRole>
    </resource>
  </entry>
  <entry>
    <fullUrl value="https://medcomfhir.dk/ig/carecommunication/Practitioner/72ef9b22-ea18-4222-8f13-7e79b0d76257"/>
    <resource>
      <Practitioner>
        <id value="72ef9b22-ea18-4222-8f13-7e79b0d76257"/>
        <meta>
          <profile value="http://medcomfhir.dk/ig/core/StructureDefinition/medcom-core-practitioner"/>
        </meta>
        <text>
          <status value="generated"/><div xmlns="http://www.w3.org/1999/xhtml"><a name="Practitioner_72ef9b22-ea18-4222-8f13-7e79b0d76257"> </a><p class="res-header-id"><b>Generated Narrative: Practitioner 72ef9b22-ea18-4222-8f13-7e79b0d76257</b></p><a name="72ef9b22-ea18-4222-8f13-7e79b0d76257"> </a><a name="hc72ef9b22-ea18-4222-8f13-7e79b0d76257"> </a><div style="display: inline-block; background-color: #d9e0e7; padding: 6px; margin: 4px; border: 1px solid #8da1b4; border-radius: 5px; line-height: 60%"><p style="margin-bottom: 0px"/><p style="margin-bottom: 0px">Profile: <a href="http://medcomfhir.dk/ig/core/3.0.0/StructureDefinition-medcom-core-practitioner.html">MedComCorePractitioner</a></p></div><p><b>name</b>: Eva Petersen </p></div>
        </text>
        <name>
          <family value="Petersen"/>
          <given value="Eva"/>
        </name>
      </Practitioner>
    </resource>
  </entry>
</Bundle>