<?xml version="1.0" encoding="UTF-8"?>

<Bundle xmlns="http://hl7.org/fhir">
  <id value="S-E-forward-77c771ca-05d6-4efb-9a74-2fc513787f3a"/>
  <meta>
    <profile value="http://medcomfhir.dk/ig/carecommunication/StructureDefinition/medcom-careCommunication-message|5.0.1"/>
  </meta>
  <type value="message"/>
  <timestamp value="2024-09-14T13:00:00+02:00"/>
  <entry>
    <fullUrl value="https://medcomfhir.dk/ig/carecommunication/MessageHeader/3dbffafe-ce3c-45b0-bca7-2c008c478e79"/>
    <resource>
      <MessageHeader>
        <id value="3dbffafe-ce3c-45b0-bca7-2c008c478e79"/>
        <meta>
          <profile value="http://medcomfhir.dk/ig/carecommunication/StructureDefinition/medcom-careCommunication-messageHeader|5.0.1"/>
        </meta>
        <text>
          <status value="generated"/><div xmlns="http://www.w3.org/1999/xhtml"><a name="MessageHeader_3dbffafe-ce3c-45b0-bca7-2c008c478e79"> </a><p class="res-header-id"><b>Generated Narrative: MessageHeader 3dbffafe-ce3c-45b0-bca7-2c008c478e79</b></p><a name="3dbffafe-ce3c-45b0-bca7-2c008c478e79"> </a><a name="hc3dbffafe-ce3c-45b0-bca7-2c008c478e79"> </a><div style="display: inline-block; background-color: #d9e0e7; padding: 6px; margin: 4px; border: 1px solid #8da1b4; border-radius: 5px; line-height: 60%"><p style="margin-bottom: 0px"/><p style="margin-bottom: 0px">Profile: <a href="http://medcomfhir.dk/ig/carecommunication/5.0.1/StructureDefinition-medcom-careCommunication-messageHeader.html">MedComCareCommunicationMessageHeaderversion: null5.0.1)</a></p></div><p><b>event</b>: <a href="http://medcomfhir.dk/ig/terminology/2.0.1/CodeSystem-medcom-messaging-eventCodes.html#medcom-messaging-eventCodes-care-communication-message">MedComMessagingEventCodes care-communication-message</a>: Care Communication Message</p><h3>Destinations</h3><table class="grid"><tr><td style="display: none">-</td><td><b>Extension</b></td><td><b>Endpoint</b></td><td><b>Receiver</b></td></tr><tr><td style="display: none">*</td><td/><td><a href="https://sor2.sum.dsdn.dk/#id=1017421000016003">https://sor2.sum.dsdn.dk/#id=1017421000016003</a></td><td><a href="Organization-6ea7c7cb-824b-4619-a13e-bc8828afd7e1.html">Organization 2100 Lægehuset Østerbro</a></td></tr></table><p><b>sender</b>: <a href="Organization-d2ac69eb-568e-4201-b29d-2af8d3126518.html">Organization: identifier = https://www.gs1.org/gln#5790001387419,urn:oid:1.2.208.176.1.1#953751000016007</a></p><h3>Sources</h3><table class="grid"><tr><td style="display: none">-</td><td><b>Endpoint</b></td></tr><tr><td style="display: none">*</td><td><a href="https://sor2.sum.dsdn.dk/#id=953751000016007">https://sor2.sum.dsdn.dk/#id=953751000016007</a></td></tr></table><p><b>focus</b>: <a href="Communication-e7e596e0-6458-4701-a20f-a9322f85ebe8.html">Communication: identifier = urn:uuid:06a106f9-df1c-4064-9031-b6a4cb841e85; status = unknown; category = Dødsfald; topic = </a></p><p><b>definition</b>: <a href="http://medcomfhir.dk/ig/messagedefinitions/1.0.0/MessageDefinition-MedComCareCommunicationMessageDefinitionV5.0.html">http://medcomfhir.dk/ig/messagedefinitions/MessageDefinition/MedComCareCommunicationMessageDefinition|5.0</a></p></div>
        </text>
        <eventCoding>
          <system value="http://medcomfhir.dk/ig/terminology/CodeSystem/medcom-messaging-eventCodes"/>
          <code value="care-communication-message"/>
        </eventCoding>
        <destination>
          <extension url="http://medcomfhir.dk/ig/messaging/StructureDefinition/medcom-messaging-destinationUseExtension">
            <valueCoding>
              <system value="http://medcomfhir.dk/ig/terminology/CodeSystem/medcom-messaging-destinationUse"/>
              <code value="primary"/>
            </valueCoding>
          </extension>
          <endpoint value="https://sor2.sum.dsdn.dk/#id=1017421000016003"/>
          <receiver>
            <reference value="Organization/6ea7c7cb-824b-4619-a13e-bc8828afd7e1"/>
          </receiver>
        </destination>
        <sender>
          <reference value="Organization/d2ac69eb-568e-4201-b29d-2af8d3126518"/>
        </sender>
        <source>
          <endpoint value="https://sor2.sum.dsdn.dk/#id=953751000016007"/>
        </source>
        <focus>
          <reference value="Communication/e7e596e0-6458-4701-a20f-a9322f85ebe8"/>
        </focus>
        <definition value="http://medcomfhir.dk/ig/messagedefinitions/MessageDefinition/MedComCareCommunicationMessageDefinition|5.0"/>
      </MessageHeader>
    </resource>
  </entry>
  <entry>
    <fullUrl value="https://medcomfhir.dk/ig/carecommunication/Patient/db2fd52e-9a7a-418f-90d1-b422e07c895d"/>
    <resource>
      <Patient>
        <id value="db2fd52e-9a7a-418f-90d1-b422e07c895d"/>
        <meta>
          <profile value="http://medcomfhir.dk/ig/core/StructureDefinition/medcom-core-patient|3.0.1"/>
        </meta>
        <text>
          <status value="generated"/><div xmlns="http://www.w3.org/1999/xhtml"><a name="Patient_db2fd52e-9a7a-418f-90d1-b422e07c895d"> </a><p class="res-header-id"><b>Generated Narrative: Patient db2fd52e-9a7a-418f-90d1-b422e07c895d</b></p><a name="db2fd52e-9a7a-418f-90d1-b422e07c895d"> </a><a name="hcdb2fd52e-9a7a-418f-90d1-b422e07c895d"> </a><div style="display: inline-block; background-color: #d9e0e7; padding: 6px; margin: 4px; border: 1px solid #8da1b4; border-radius: 5px; line-height: 60%"><p style="margin-bottom: 0px"/><p style="margin-bottom: 0px">Profile: <a href="http://medcomfhir.dk/ig/core/3.0.1/StructureDefinition-medcom-core-patient.html">MedComCorePatientversion: null3.0.1)</a></p></div><p style="border: 1px #661aff solid; background-color: #e6e6ff; padding: 10px;">Elmer (official) (no stated gender), DoB Unknown ( urn:oid:1.2.208.176.1.2#2509479989)</p><hr/><table class="grid"><tr><td style="background-color: #f3f5da" title="Known status of Patient">Deceased:</td><td colspan="3">true</td></tr></table></div>
        </text>
        <identifier>
          <system value="urn:oid:1.2.208.176.1.2"/>
          <value value="2509479989"/>
        </identifier>
        <name>
          <use value="official"/>
          <family value="Elmer"/>
        </name>
        <deceasedBoolean value="true"/>
      </Patient>
    </resource>
  </entry>
  <entry>
    <fullUrl value="https://medcomfhir.dk/ig/carecommunication/Communication/e7e596e0-6458-4701-a20f-a9322f85ebe8"/>
    <resource>
      <Communication>
        <id value="e7e596e0-6458-4701-a20f-a9322f85ebe8"/>
        <meta>
          <profile value="http://medcomfhir.dk/ig/carecommunication/StructureDefinition/medcom-careCommunication-communication|5.0.1"/>
        </meta>
        <text>
          <status value="extensions"/><div xmlns="http://www.w3.org/1999/xhtml"><a name="Communication_e7e596e0-6458-4701-a20f-a9322f85ebe8"> </a><p class="res-header-id"><b>Generated Narrative: Communication e7e596e0-6458-4701-a20f-a9322f85ebe8</b></p><a name="e7e596e0-6458-4701-a20f-a9322f85ebe8"> </a><a name="hce7e596e0-6458-4701-a20f-a9322f85ebe8"> </a><div style="display: inline-block; background-color: #d9e0e7; padding: 6px; margin: 4px; border: 1px solid #8da1b4; border-radius: 5px; line-height: 60%"><p style="margin-bottom: 0px"/><p style="margin-bottom: 0px">Profile: <a href="http://medcomfhir.dk/ig/carecommunication/5.0.1/StructureDefinition-medcom-careCommunication-communication.html">MedComCareCommunicationversion: null5.0.1)</a></p></div><p><b>identifier</b>: urn:uuid:06a106f9-df1c-4064-9031-b6a4cb841e85</p><p><b>status</b>: Unknown</p><p><b>category</b>: <span title="Codes:{http://medcomfhir.dk/ig/terminology/CodeSystem/medcom-careCommunication-categoryCodes decease}">Dødsfald</span></p><p><b>subject</b>: <a href="Patient-db2fd52e-9a7a-418f-90d1-b422e07c895d.html">Elmer (official) (no stated gender), DoB Unknown ( urn:oid:1.2.208.176.1.2#2509479989)</a></p><p><b>topic</b>: <span title="Codes:">Afgået ved døden</span></p><blockquote><p><b>payload</b></p><p><b>DateTimeExtension</b>: 2024-09-14 13:00:00+0200</p><p><b>IdentifierExtension</b>: urn:uuid:954183f4-bc89-4d75-8073-9b397bacd6ec</p><p><b>PractitionerExtension</b>: <a href="PractitionerRole-84eb6a09-63cf-433d-8522-41465d78756a.html">PractitionerRole Lægesekretær</a></p><p><b>ContactExtension</b>: ph: 85572787</p><p><b>content</b>: Til rette vedkommende hos Per Thorsleth. Bruno Elmer er desværre død i nat kl. 4.15. I hans kalender fremgår det, at han vil komme til læge i morgen kl. 11. Det gør han ikke.
Hilsen Nancy Jensen
Lægesekretær</p></blockquote><blockquote><p><b>payload</b></p><p><b>DateTimeExtension</b>: 2024-09-14 14:25:00+0200</p><p><b>IdentifierExtension</b>: urn:uuid:cfc9886a-5f54-463b-9255-99bfaf778d8c</p><p><b>PractitionerExtension</b>: <a href="PractitionerRole-1840f077-7ca1-4141-a46b-1bce43065c76.html">PractitionerRole Sygeplejerske</a></p><p><b>ContactExtension</b>: ph: 87875455</p><p><b>content</b>: Tak for informationen. Jeg videresender beskeden til Brunos læge.
Hilsen Kim Jensen
Sygeplejerske</p></blockquote></div>
        </text>
        <identifier>
          <value value="urn:uuid:06a106f9-df1c-4064-9031-b6a4cb841e85"/>
        </identifier>
        <status value="unknown"/>
        <category>
          <coding>
            <system value="http://medcomfhir.dk/ig/terminology/CodeSystem/medcom-careCommunication-categoryCodes"/>
            <code value="decease"/>
          </coding>
        </category>
        <subject>
          <reference value="Patient/db2fd52e-9a7a-418f-90d1-b422e07c895d"/>
        </subject>
        <topic>
          <text value="Afgået ved døden"/>
        </topic>
        <payload>
          <extension url="http://medcomfhir.dk/ig/core/StructureDefinition/medcom-core-datetime-extension">
            <valueDateTime value="2024-09-14T13:00:00+02:00"/>
          </extension>
          <extension url="http://medcomfhir.dk/ig/core/StructureDefinition/medcom-core-identifier-extension">
            <valueIdentifier>
              <value value="urn:uuid:954183f4-bc89-4d75-8073-9b397bacd6ec"/>
              <assigner>
                <reference value="Organization/7260b118-d744-4396-bbf2-80245933b1dd"/>
              </assigner>
            </valueIdentifier>
          </extension>
          <extension url="http://medcomfhir.dk/ig/core/StructureDefinition/medcom-core-practitioner-extension">
            <valueReference>
              <reference value="PractitionerRole/84eb6a09-63cf-433d-8522-41465d78756a"/>
            </valueReference>
          </extension>
          <extension url="http://medcomfhir.dk/ig/core/StructureDefinition/medcom-core-contact-extension">
            <valueContactPoint>
              <system value="phone"/>
              <value value="85572787"/>
            </valueContactPoint>
          </extension>
          <contentString value="Til rette vedkommende hos Per Thorsleth. Bruno Elmer er desværre død i nat kl. 4.15. I hans kalender fremgår det, at han vil komme til læge i morgen kl. 11. Det gør han ikke.&#xA;Hilsen Nancy Jensen&#xA;Lægesekretær"/>
        </payload>
        <payload>
          <extension url="http://medcomfhir.dk/ig/core/StructureDefinition/medcom-core-datetime-extension">
            <valueDateTime value="2024-09-14T14:25:00+02:00"/>
          </extension>
          <extension url="http://medcomfhir.dk/ig/core/StructureDefinition/medcom-core-identifier-extension">
            <valueIdentifier>
              <value value="urn:uuid:cfc9886a-5f54-463b-9255-99bfaf778d8c"/>
              <assigner>
                <reference value="Organization/d2ac69eb-568e-4201-b29d-2af8d3126518"/>
              </assigner>
            </valueIdentifier>
          </extension>
          <extension url="http://medcomfhir.dk/ig/core/StructureDefinition/medcom-core-practitioner-extension">
            <valueReference>
              <reference value="PractitionerRole/1840f077-7ca1-4141-a46b-1bce43065c76"/>
            </valueReference>
          </extension>
          <extension url="http://medcomfhir.dk/ig/core/StructureDefinition/medcom-core-contact-extension">
            <valueContactPoint>
              <system value="phone"/>
              <value value="87875455"/>
            </valueContactPoint>
          </extension>
          <contentString value="Tak for informationen. Jeg videresender beskeden til Brunos læge.&#xA;Hilsen Kim Jensen&#xA;Sygeplejerske"/>
        </payload>
      </Communication>
    </resource>
  </entry>
  <entry>
    <fullUrl value="https://medcomfhir.dk/ig/carecommunication/PractitionerRole/1840f077-7ca1-4141-a46b-1bce43065c76"/>
    <resource>
      <PractitionerRole>
        <id value="1840f077-7ca1-4141-a46b-1bce43065c76"/>
        <meta>
          <profile value="http://medcomfhir.dk/ig/core/StructureDefinition/medcom-core-practitionerrole|3.0.1"/>
        </meta>
        <text>
          <status value="generated"/><div xmlns="http://www.w3.org/1999/xhtml"><a name="PractitionerRole_1840f077-7ca1-4141-a46b-1bce43065c76"> </a><p class="res-header-id"><b>Generated Narrative: PractitionerRole 1840f077-7ca1-4141-a46b-1bce43065c76</b></p><a name="1840f077-7ca1-4141-a46b-1bce43065c76"> </a><a name="hc1840f077-7ca1-4141-a46b-1bce43065c76"> </a><div style="display: inline-block; background-color: #d9e0e7; padding: 6px; margin: 4px; border: 1px solid #8da1b4; border-radius: 5px; line-height: 60%"><p style="margin-bottom: 0px"/><p style="margin-bottom: 0px">Profile: <a href="http://medcomfhir.dk/ig/core/3.0.1/StructureDefinition-medcom-core-practitionerrole.html">MedComCorePractitionerRoleversion: null3.0.1)</a></p></div><p><b>practitioner</b>: <a href="Practitioner-9ec69637-d91e-491d-a5b2-ec1661b98bc5.html">Practitioner Kim Jensen </a></p><p><b>code</b>: <span title="Codes:{http://medcomfhir.dk/ig/terminology/CodeSystem/medcom-core-PractitionerRolesSKSadministrativ sygeplejerske}">Sygeplejerske</span></p></div>
        </text>
        <practitioner>
          <reference value="Practitioner/9ec69637-d91e-491d-a5b2-ec1661b98bc5"/>
        </practitioner>
        <code>
          <coding>
            <system value="http://medcomfhir.dk/ig/terminology/CodeSystem/medcom-core-PractitionerRolesSKSadministrativ"/>
            <code value="sygeplejerske"/>
          </coding>
        </code>
      </PractitionerRole>
    </resource>
  </entry>
  <entry>
    <fullUrl value="https://medcomfhir.dk/ig/carecommunication/Practitioner/9ec69637-d91e-491d-a5b2-ec1661b98bc5"/>
    <resource>
      <Practitioner>
        <id value="9ec69637-d91e-491d-a5b2-ec1661b98bc5"/>
        <meta>
          <profile value="http://medcomfhir.dk/ig/core/StructureDefinition/medcom-core-practitioner|3.0.1"/>
        </meta>
        <text>
          <status value="generated"/><div xmlns="http://www.w3.org/1999/xhtml"><a name="Practitioner_9ec69637-d91e-491d-a5b2-ec1661b98bc5"> </a><p class="res-header-id"><b>Generated Narrative: Practitioner 9ec69637-d91e-491d-a5b2-ec1661b98bc5</b></p><a name="9ec69637-d91e-491d-a5b2-ec1661b98bc5"> </a><a name="hc9ec69637-d91e-491d-a5b2-ec1661b98bc5"> </a><div style="display: inline-block; background-color: #d9e0e7; padding: 6px; margin: 4px; border: 1px solid #8da1b4; border-radius: 5px; line-height: 60%"><p style="margin-bottom: 0px"/><p style="margin-bottom: 0px">Profile: <a href="http://medcomfhir.dk/ig/core/3.0.1/StructureDefinition-medcom-core-practitioner.html">MedComCorePractitionerversion: null3.0.1)</a></p></div><p><b>name</b>: Kim Jensen </p></div>
        </text>
        <name>
          <family value="Jensen"/>
          <given value="Kim"/>
        </name>
      </Practitioner>
    </resource>
  </entry>
  <entry>
    <fullUrl value="https://medcomfhir.dk/ig/carecommunication/PractitionerRole/84eb6a09-63cf-433d-8522-41465d78756a"/>
    <resource>
      <PractitionerRole>
        <id value="84eb6a09-63cf-433d-8522-41465d78756a"/>
        <meta>
          <profile value="http://medcomfhir.dk/ig/core/StructureDefinition/medcom-core-practitionerrole|3.0.1"/>
        </meta>
        <text>
          <status value="generated"/><div xmlns="http://www.w3.org/1999/xhtml"><a name="PractitionerRole_84eb6a09-63cf-433d-8522-41465d78756a"> </a><p class="res-header-id"><b>Generated Narrative: PractitionerRole 84eb6a09-63cf-433d-8522-41465d78756a</b></p><a name="84eb6a09-63cf-433d-8522-41465d78756a"> </a><a name="hc84eb6a09-63cf-433d-8522-41465d78756a"> </a><div style="display: inline-block; background-color: #d9e0e7; padding: 6px; margin: 4px; border: 1px solid #8da1b4; border-radius: 5px; line-height: 60%"><p style="margin-bottom: 0px"/><p style="margin-bottom: 0px">Profile: <a href="http://medcomfhir.dk/ig/core/3.0.1/StructureDefinition-medcom-core-practitionerrole.html">MedComCorePractitionerRoleversion: null3.0.1)</a></p></div><p><b>practitioner</b>: <a href="Practitioner-a7e25289-11d8-4125-a08a-9c1d85cbd950.html">Practitioner Nancy Nielsen </a></p><p><b>code</b>: <span title="Codes:{http://medcomfhir.dk/ig/terminology/CodeSystem/medcom-core-PractitionerRolesSKSadministrativ laegesekretaer}">Lægesekretær</span></p></div>
        </text>
        <practitioner>
          <reference value="Practitioner/a7e25289-11d8-4125-a08a-9c1d85cbd950"/>
        </practitioner>
        <code>
          <coding>
            <system value="http://medcomfhir.dk/ig/terminology/CodeSystem/medcom-core-PractitionerRolesSKSadministrativ"/>
            <code value="laegesekretaer"/>
          </coding>
        </code>
      </PractitionerRole>
    </resource>
  </entry>
  <entry>
    <fullUrl value="https://medcomfhir.dk/ig/carecommunication/Practitioner/a7e25289-11d8-4125-a08a-9c1d85cbd950"/>
    <resource>
      <Practitioner>
        <id value="a7e25289-11d8-4125-a08a-9c1d85cbd950"/>
        <meta>
          <profile value="http://medcomfhir.dk/ig/core/StructureDefinition/medcom-core-practitioner|3.0.1"/>
        </meta>
        <text>
          <status value="generated"/><div xmlns="http://www.w3.org/1999/xhtml"><a name="Practitioner_a7e25289-11d8-4125-a08a-9c1d85cbd950"> </a><p class="res-header-id"><b>Generated Narrative: Practitioner a7e25289-11d8-4125-a08a-9c1d85cbd950</b></p><a name="a7e25289-11d8-4125-a08a-9c1d85cbd950"> </a><a name="hca7e25289-11d8-4125-a08a-9c1d85cbd950"> </a><div style="display: inline-block; background-color: #d9e0e7; padding: 6px; margin: 4px; border: 1px solid #8da1b4; border-radius: 5px; line-height: 60%"><p style="margin-bottom: 0px"/><p style="margin-bottom: 0px">Profile: <a href="http://medcomfhir.dk/ig/core/3.0.1/StructureDefinition-medcom-core-practitioner.html">MedComCorePractitionerversion: null3.0.1)</a></p></div><p><b>name</b>: Nancy Nielsen </p></div>
        </text>
        <name>
          <family value="Nielsen"/>
          <given value="Nancy"/>
        </name>
      </Practitioner>
    </resource>
  </entry>
  <entry>
    <fullUrl value="https://medcomfhir.dk/ig/carecommunication/Organization/d2ac69eb-568e-4201-b29d-2af8d3126518"/>
    <resource>
      <Organization>
        <id value="d2ac69eb-568e-4201-b29d-2af8d3126518"/>
        <meta>
          <profile value="http://medcomfhir.dk/ig/messaging/StructureDefinition/medcom-messaging-organization|4.0.1"/>
        </meta>
        <text>
          <status value="generated"/><div xmlns="http://www.w3.org/1999/xhtml"><a name="Organization_d2ac69eb-568e-4201-b29d-2af8d3126518"> </a><p class="res-header-id"><b>Generated Narrative: Organization d2ac69eb-568e-4201-b29d-2af8d3126518</b></p><a name="d2ac69eb-568e-4201-b29d-2af8d3126518"> </a><a name="hcd2ac69eb-568e-4201-b29d-2af8d3126518"> </a><div style="display: inline-block; background-color: #d9e0e7; padding: 6px; margin: 4px; border: 1px solid #8da1b4; border-radius: 5px; line-height: 60%"><p style="margin-bottom: 0px"/><p style="margin-bottom: 0px">Profile: <a href="http://medcomfhir.dk/ig/messaging/4.0.1/StructureDefinition-medcom-messaging-organization.html">MedComMessagingOrganizationversion: null4.0.1)</a></p></div><p><b>identifier</b>: <code>https://www.gs1.org/gln</code>/5790001387419, <code>urn:oid:1.2.208.176.1.1</code>/953751000016007</p></div>
        </text>
        <identifier>
          <system value="https://www.gs1.org/gln"/>
          <value value="5790001387419"/>
        </identifier>
        <identifier>
          <system value="urn:oid:1.2.208.176.1.1"/>
          <value value="953751000016007"/>
        </identifier>
      </Organization>
    </resource>
  </entry>
  <entry>
    <fullUrl value="https://medcomfhir.dk/ig/carecommunication/Organization/7260b118-d744-4396-bbf2-80245933b1dd"/>
    <resource>
      <Organization>
        <id value="7260b118-d744-4396-bbf2-80245933b1dd"/>
        <meta>
          <profile value="http://medcomfhir.dk/ig/messaging/StructureDefinition/medcom-messaging-organization|4.0.1"/>
        </meta>
        <text>
          <status value="generated"/><div xmlns="http://www.w3.org/1999/xhtml"><a name="Organization_7260b118-d744-4396-bbf2-80245933b1dd"> </a><p class="res-header-id"><b>Generated Narrative: Organization 7260b118-d744-4396-bbf2-80245933b1dd</b></p><a name="7260b118-d744-4396-bbf2-80245933b1dd"> </a><a name="hc7260b118-d744-4396-bbf2-80245933b1dd"> </a><div style="display: inline-block; background-color: #d9e0e7; padding: 6px; margin: 4px; border: 1px solid #8da1b4; border-radius: 5px; line-height: 60%"><p style="margin-bottom: 0px"/><p style="margin-bottom: 0px">Profile: <a href="http://medcomfhir.dk/ig/messaging/4.0.1/StructureDefinition-medcom-messaging-organization.html">MedComMessagingOrganizationversion: null4.0.1)</a></p></div><p><b>identifier</b>: <code>https://www.gs1.org/gln</code>/5790001353308, <code>urn:oid:1.2.208.176.1.1</code>/330461000016004</p><p><b>name</b>: Sundhedsplejen, Aabenraa kommune</p></div>
        </text>
        <identifier>
          <system value="https://www.gs1.org/gln"/>
          <value value="5790001353308"/>
        </identifier>
        <identifier>
          <system value="urn:oid:1.2.208.176.1.1"/>
          <value value="330461000016004"/>
        </identifier>
        <name value="Sundhedsplejen, Aabenraa kommune"/>
      </Organization>
    </resource>
  </entry>
  <entry>
    <fullUrl value="https://medcomfhir.dk/ig/carecommunication/Organization/6ea7c7cb-824b-4619-a13e-bc8828afd7e1"/>
    <resource>
      <Organization>
        <id value="6ea7c7cb-824b-4619-a13e-bc8828afd7e1"/>
        <meta>
          <profile value="http://medcomfhir.dk/ig/messaging/StructureDefinition/medcom-messaging-organization|4.0.1"/>
        </meta>
        <text>
          <status value="generated"/><div xmlns="http://www.w3.org/1999/xhtml"><a name="Organization_6ea7c7cb-824b-4619-a13e-bc8828afd7e1"> </a><p class="res-header-id"><b>Generated Narrative: Organization 6ea7c7cb-824b-4619-a13e-bc8828afd7e1</b></p><a name="6ea7c7cb-824b-4619-a13e-bc8828afd7e1"> </a><a name="hc6ea7c7cb-824b-4619-a13e-bc8828afd7e1"> </a><div style="display: inline-block; background-color: #d9e0e7; padding: 6px; margin: 4px; border: 1px solid #8da1b4; border-radius: 5px; line-height: 60%"><p style="margin-bottom: 0px"/><p style="margin-bottom: 0px">Profile: <a href="http://medcomfhir.dk/ig/messaging/4.0.1/StructureDefinition-medcom-messaging-organization.html">MedComMessagingOrganizationversion: null4.0.1)</a></p></div><p><b>identifier</b>: <code>https://www.gs1.org/gln</code>/5790002408496, <code>urn:oid:1.2.208.176.1.1</code>/1017421000016003</p><p><b>name</b>: 2100 Lægehuset Østerbro</p></div>
        </text>
        <identifier>
          <system value="https://www.gs1.org/gln"/>
          <value value="5790002408496"/>
        </identifier>
        <identifier>
          <system value="urn:oid:1.2.208.176.1.1"/>
          <value value="1017421000016003"/>
        </identifier>
        <name value="2100 Lægehuset Østerbro"/>
      </Organization>
    </resource>
  </entry>
  <entry>
    <fullUrl value="https://medcomfhir.dk/ig/carecommunication/Provenance/4e290fa6-0a40-4cc8-abd3-14ac22e0b48b"/>
    <resource>
      <Provenance>
        <id value="4e290fa6-0a40-4cc8-abd3-14ac22e0b48b"/>
        <meta>
          <profile value="http://medcomfhir.dk/ig/carecommunication/StructureDefinition/medcom-careCommunication-provenance"/>
        </meta>
        <text>
          <status value="generated"/><div xmlns="http://www.w3.org/1999/xhtml"><a name="Provenance_4e290fa6-0a40-4cc8-abd3-14ac22e0b48b"> </a><p class="res-header-id"><b>Generated Narrative: Provenance 4e290fa6-0a40-4cc8-abd3-14ac22e0b48b</b></p><a name="4e290fa6-0a40-4cc8-abd3-14ac22e0b48b"> </a><a name="hc4e290fa6-0a40-4cc8-abd3-14ac22e0b48b"> </a><div style="display: inline-block; background-color: #d9e0e7; padding: 6px; margin: 4px; border: 1px solid #8da1b4; border-radius: 5px; line-height: 60%"><p style="margin-bottom: 0px"/><p style="margin-bottom: 0px">Profile: <a href="http://medcomfhir.dk/ig/carecommunication/5.0.1/StructureDefinition-medcom-careCommunication-provenance.html">MedComCareCommunicationProvenance</a></p></div><p>Provenance for <a href="MessageHeader-42fa2844-5020-45dd-bd5f-77137ba5ca1f.html">MessageHeader: event[x] = Care Communication Message (MedComMessagingEventCodes#care-communication-message); definition = http://medcomfhir.dk/ig/messagedefinitions/MessageDefinition/MedComCareCommunicationMessageDefinition|5.0</a></p><p>Summary</p><table class="grid"><tr><td>Occurrence</td><td>2024-09-14 13:00:00+0200</td></tr><tr><td>Recorded</td><td>2024-09-14 13:00:00+0200</td></tr><tr><td>Activity</td><td><span title="Codes:{http://medcomfhir.dk/ig/terminology/CodeSystem/medcom-messaging-activityCodes new-message}">A new message has been sent</span></td></tr></table><p><b>Agents</b></p><table class="grid"><tr><td><b>who</b></td></tr><tr><td><a href="Organization-7260b118-d744-4396-bbf2-80245933b1dd.html">Organization Sundhedsplejen, Aabenraa kommune</a></td></tr></table></div>
        </text>
        <target>
          <reference value="MessageHeader/42fa2844-5020-45dd-bd5f-77137ba5ca1f"/>
        </target>
        <occurredDateTime value="2024-09-14T13:00:00+02:00"/>
        <recorded value="2024-09-14T13:00:00+02:00"/>
        <activity>
          <coding>
            <system value="http://medcomfhir.dk/ig/terminology/CodeSystem/medcom-messaging-activityCodes"/>
            <code value="new-message"/>
          </coding>
        </activity>
        <agent>
          <who>
            <reference value="Organization/7260b118-d744-4396-bbf2-80245933b1dd"/>
          </who>
        </agent>
        <entity>
          <role value="source"/>
          <what>
            <identifier>
              <value value="urn:uuid:954183f4-bc89-4d75-8073-9b397bacd6ec"/>
            </identifier>
          </what>
        </entity>
      </Provenance>
    </resource>
  </entry>
  <entry>
    <fullUrl value="https://medcomfhir.dk/ig/carecommunication/Provenance/86b93888-0a2d-4530-a1c2-263394932e11"/>
    <resource>
      <Provenance>
        <id value="86b93888-0a2d-4530-a1c2-263394932e11"/>
        <meta>
          <profile value="http://medcomfhir.dk/ig/carecommunication/StructureDefinition/medcom-careCommunication-provenance"/>
        </meta>
        <text>
          <status value="generated"/><div xmlns="http://www.w3.org/1999/xhtml"><a name="Provenance_86b93888-0a2d-4530-a1c2-263394932e11"> </a><p class="res-header-id"><b>Generated Narrative: Provenance 86b93888-0a2d-4530-a1c2-263394932e11</b></p><a name="86b93888-0a2d-4530-a1c2-263394932e11"> </a><a name="hc86b93888-0a2d-4530-a1c2-263394932e11"> </a><div style="display: inline-block; background-color: #d9e0e7; padding: 6px; margin: 4px; border: 1px solid #8da1b4; border-radius: 5px; line-height: 60%"><p style="margin-bottom: 0px"/><p style="margin-bottom: 0px">Profile: <a href="http://medcomfhir.dk/ig/carecommunication/5.0.1/StructureDefinition-medcom-careCommunication-provenance.html">MedComCareCommunicationProvenance</a></p></div><p>Provenance for <a href="MessageHeader-3dbffafe-ce3c-45b0-bca7-2c008c478e79.html">MessageHeader: event[x] = Care Communication Message (MedComMessagingEventCodes#care-communication-message); definition = http://medcomfhir.dk/ig/messagedefinitions/MessageDefinition/MedComCareCommunicationMessageDefinition|5.0</a></p><p>Summary</p><table class="grid"><tr><td>Occurrence</td><td>2024-09-14 14:25:00+0200</td></tr><tr><td>Recorded</td><td>2024-09-14 14:25:00+0200</td></tr><tr><td>Activity</td><td><span title="Codes:{http://medcomfhir.dk/ig/terminology/CodeSystem/medcom-messaging-activityCodes forward-message}">A message has been forwarded and potentially changed</span></td></tr></table><p><b>Agents</b></p><table class="grid"><tr><td><b>who</b></td></tr><tr><td><a href="Organization-6ea7c7cb-824b-4619-a13e-bc8828afd7e1.html">Organization 2100 Lægehuset Østerbro</a></td></tr></table></div>
        </text>
        <target>
          <reference value="MessageHeader/3dbffafe-ce3c-45b0-bca7-2c008c478e79"/>
        </target>
        <occurredDateTime value="2024-09-14T14:25:00+02:00"/>
        <recorded value="2024-09-14T14:25:00+02:00"/>
        <activity>
          <coding>
            <system value="http://medcomfhir.dk/ig/terminology/CodeSystem/medcom-messaging-activityCodes"/>
            <code value="forward-message"/>
          </coding>
        </activity>
        <agent>
          <who>
            <reference value="Organization/6ea7c7cb-824b-4619-a13e-bc8828afd7e1"/>
          </who>
        </agent>
        <entity>
          <role value="source"/>
          <what>
            <identifier>
              <value value="urn:uuid:cfc9886a-5f54-463b-9255-99bfaf778d8c"/>
            </identifier>
          </what>
        </entity>
        <entity>
          <role value="revision"/>
          <what>
            <reference value="MessageHeader/42fa2844-5020-45dd-bd5f-77137ba5ca1f"/>
          </what>
        </entity>
      </Provenance>
    </resource>
  </entry>
</Bundle>