{
  "resourceType" : "Bundle",
  "id" : "R-Tek-CPR-3-4d9d90c5-5647-4b4a-8c61-770bc5c3e092",
  "meta" : {
    "profile" : ["http://medcomfhir.dk/ig/carecommunication/StructureDefinition/medcom-careCommunication-message"]
  },
  "type" : "message",
  "timestamp" : "2025-09-29T09:00:00+02:00",
  "entry" : [{
    "fullUrl" : "https://medcomfhir.dk/ig/carecommunication/MessageHeader/73893146-ff6f-4455-99c3-9126c74d16a2",
    "resource" : {
      "resourceType" : "MessageHeader",
      "id" : "73893146-ff6f-4455-99c3-9126c74d16a2",
      "meta" : {
        "profile" : ["http://medcomfhir.dk/ig/carecommunication/StructureDefinition/medcom-careCommunication-messageHeader|5.0.1"]
      },
      "text" : {
        "status" : "generated",
        "div" : "<div xmlns=\"http://www.w3.org/1999/xhtml\"><a name=\"MessageHeader_73893146-ff6f-4455-99c3-9126c74d16a2\"> </a><p class=\"res-header-id\"><b>Generated Narrative: MessageHeader 73893146-ff6f-4455-99c3-9126c74d16a2</b></p><a name=\"73893146-ff6f-4455-99c3-9126c74d16a2\"> </a><a name=\"hc73893146-ff6f-4455-99c3-9126c74d16a2\"> </a><div style=\"display: inline-block; background-color: #d9e0e7; padding: 6px; margin: 4px; border: 1px solid #8da1b4; border-radius: 5px; line-height: 60%\"><p style=\"margin-bottom: 0px\"/><p style=\"margin-bottom: 0px\">Profile: <a href=\"http://medcomfhir.dk/ig/carecommunication/5.0.1/StructureDefinition-medcom-careCommunication-messageHeader.html\">MedComCareCommunicationMessageHeaderversion: null5.0.1)</a></p></div><p><b>event</b>: <a href=\"http://medcomfhir.dk/ig/terminology/2.0.1/CodeSystem-medcom-messaging-eventCodes.html#medcom-messaging-eventCodes-care-communication-message\">MedComMessagingEventCodes care-communication-message</a>: Care Communication Message</p><h3>Destinations</h3><table class=\"grid\"><tr><td style=\"display: none\">-</td><td><b>Extension</b></td><td><b>Endpoint</b></td><td><b>Receiver</b></td></tr><tr><td style=\"display: none\">*</td><td/><td><a href=\"https://sor2.sum.dsdn.dk/#id=325251000016005\">https://sor2.sum.dsdn.dk/#id=325251000016005</a></td><td><a href=\"Organization-2af0aac8-cfe4-4fe9-865f-1542f02f5470.html\">Organization MedCom XDIS91</a></td></tr></table><p><b>sender</b>: <a href=\"Organization-c20dccdc-4a01-4e06-b9f2-5246152794ab.html\">Organization MedCom FDIS91</a></p><h3>Sources</h3><table class=\"grid\"><tr><td style=\"display: none\">-</td><td><b>Endpoint</b></td></tr><tr><td style=\"display: none\">*</td><td><a href=\"https://sor2.sum.dsdn.dk/#id=325371000016006\">https://sor2.sum.dsdn.dk/#id=325371000016006</a></td></tr></table><p><b>focus</b>: <a href=\"Communication-be7239e2-f715-45f6-a427-c07c25ef4bef.html\">Communication: identifier = urn:uuid:eca85df4-e6c9-41d7-88c0-7e6fb79029b9; status = unknown; category = Undersøgelsessvar</a></p><p><b>definition</b>: <a href=\"http://medcomfhir.dk/ig/messagedefinitions/1.0.0/MessageDefinition-MedComCareCommunicationMessageDefinitionV5.0.html\">http://medcomfhir.dk/ig/messagedefinitions/MessageDefinition/MedComCareCommunicationMessageDefinition|5.0</a></p></div>"
      },
      "eventCoding" : {
        "system" : "http://medcomfhir.dk/ig/terminology/CodeSystem/medcom-messaging-eventCodes",
        "code" : "care-communication-message"
      },
      "destination" : [{
        "extension" : [{
          "url" : "http://medcomfhir.dk/ig/messaging/StructureDefinition/medcom-messaging-destinationUseExtension",
          "valueCoding" : {
            "system" : "http://medcomfhir.dk/ig/terminology/CodeSystem/medcom-messaging-destinationUse",
            "code" : "primary"
          }
        }],
        "endpoint" : "https://sor2.sum.dsdn.dk/#id=325251000016005",
        "receiver" : {
          "reference" : "Organization/2af0aac8-cfe4-4fe9-865f-1542f02f5470"
        }
      }],
      "sender" : {
        "reference" : "Organization/c20dccdc-4a01-4e06-b9f2-5246152794ab"
      },
      "source" : {
        "endpoint" : "https://sor2.sum.dsdn.dk/#id=325371000016006"
      },
      "focus" : [{
        "reference" : "Communication/be7239e2-f715-45f6-a427-c07c25ef4bef"
      }],
      "definition" : "http://medcomfhir.dk/ig/messagedefinitions/MessageDefinition/MedComCareCommunicationMessageDefinition|5.0"
    }
  },
  {
    "fullUrl" : "https://medcomfhir.dk/ig/carecommunication/Patient/e1ada6b9-0782-4e18-b2e1-85ab642018a9",
    "resource" : {
      "resourceType" : "Patient",
      "id" : "e1ada6b9-0782-4e18-b2e1-85ab642018a9",
      "meta" : {
        "profile" : ["http://medcomfhir.dk/ig/core/StructureDefinition/medcom-core-patient|3.0.1"]
      },
      "text" : {
        "status" : "generated",
        "div" : "<div xmlns=\"http://www.w3.org/1999/xhtml\"><a name=\"Patient_e1ada6b9-0782-4e18-b2e1-85ab642018a9\"> </a><p class=\"res-header-id\"><b>Generated Narrative: Patient e1ada6b9-0782-4e18-b2e1-85ab642018a9</b></p><a name=\"e1ada6b9-0782-4e18-b2e1-85ab642018a9\"> </a><a name=\"hce1ada6b9-0782-4e18-b2e1-85ab642018a9\"> </a><div style=\"display: inline-block; background-color: #d9e0e7; padding: 6px; margin: 4px; border: 1px solid #8da1b4; border-radius: 5px; line-height: 60%\"><p style=\"margin-bottom: 0px\"/><p style=\"margin-bottom: 0px\">Profile: <a href=\"http://medcomfhir.dk/ig/core/3.0.1/StructureDefinition-medcom-core-patient.html\">MedComCorePatientversion: null3.0.1)</a></p></div><p style=\"border: 1px #661aff solid; background-color: #e6e6ff; padding: 10px;\">Peter Hansen (official) (no stated gender), DoB Unknown ( urn:oid:1.2.208.176.1.6.1.1#0703921VJ5)</p><hr/><table class=\"grid\"><tr><td style=\"background-color: #f3f5da\" title=\"Other Id (see the one above)\">Other Id:</td><td colspan=\"3\"><code>urn:oid:1.2.208.176.1.6.1.3</code>/1206550VK9</td></tr></table></div>"
      },
      "identifier" : [{
        "system" : "urn:oid:1.2.208.176.1.6.1.1",
        "value" : "0703921VJ5"
      },
      {
        "system" : "urn:oid:1.2.208.176.1.6.1.3",
        "value" : "1206550VK9"
      }],
      "name" : [{
        "use" : "official",
        "family" : "Hansen",
        "given" : ["Peter"]
      }]
    }
  },
  {
    "fullUrl" : "https://medcomfhir.dk/ig/carecommunication/Communication/be7239e2-f715-45f6-a427-c07c25ef4bef",
    "resource" : {
      "resourceType" : "Communication",
      "id" : "be7239e2-f715-45f6-a427-c07c25ef4bef",
      "meta" : {
        "profile" : ["http://medcomfhir.dk/ig/carecommunication/StructureDefinition/medcom-careCommunication-communication|5.0.1"]
      },
      "text" : {
        "status" : "extensions",
        "div" : "<div xmlns=\"http://www.w3.org/1999/xhtml\"><a name=\"Communication_be7239e2-f715-45f6-a427-c07c25ef4bef\"> </a><p class=\"res-header-id\"><b>Generated Narrative: Communication be7239e2-f715-45f6-a427-c07c25ef4bef</b></p><a name=\"be7239e2-f715-45f6-a427-c07c25ef4bef\"> </a><a name=\"hcbe7239e2-f715-45f6-a427-c07c25ef4bef\"> </a><div style=\"display: inline-block; background-color: #d9e0e7; padding: 6px; margin: 4px; border: 1px solid #8da1b4; border-radius: 5px; line-height: 60%\"><p style=\"margin-bottom: 0px\"/><p style=\"margin-bottom: 0px\">Profile: <a href=\"http://medcomfhir.dk/ig/carecommunication/5.0.1/StructureDefinition-medcom-careCommunication-communication.html\">MedComCareCommunicationversion: null5.0.1)</a></p></div><p><b>identifier</b>: urn:uuid:eca85df4-e6c9-41d7-88c0-7e6fb79029b9</p><p><b>status</b>: Unknown</p><p><b>category</b>: <span title=\"Codes:{http://medcomfhir.dk/ig/terminology/CodeSystem/medcom-careCommunication-categoryCodes examination-results}\">Undersøgelsessvar</span></p><p><b>subject</b>: <a href=\"Patient-e1ada6b9-0782-4e18-b2e1-85ab642018a9.html\">Peter Hansen (official) (no stated gender), DoB Unknown ( urn:oid:1.2.208.176.1.6.1.1#0703921VJ5)</a></p><blockquote><p><b>payload</b></p><p><b>DateTimeExtension</b>: 2025-09-29 09:00:00+0200</p><p><b>IdentifierExtension</b>: urn:uuid:1d881c60-609f-4dac-9b17-cac3959cd01d</p><p><b>PractitionerExtension</b>: <a href=\"PractitionerRole-b362049e-9f98-4192-af53-2409cc817560.html\">PractitionerRole Sygeplejerske</a></p><p><b>ContactExtension</b>: <a href=\"tel:+4512345789\">+4512345789</a></p><p><b>content</b>: Dette er en korrespondancemeddelelse med to erstatnings-CPR numre, af hver sin type.\nHilsen Michael, sygeplejerske.</p></blockquote></div>"
      },
      "identifier" : [{
        "value" : "urn:uuid:eca85df4-e6c9-41d7-88c0-7e6fb79029b9"
      }],
      "status" : "unknown",
      "category" : [{
        "coding" : [{
          "system" : "http://medcomfhir.dk/ig/terminology/CodeSystem/medcom-careCommunication-categoryCodes",
          "code" : "examination-results"
        }]
      }],
      "subject" : {
        "reference" : "Patient/e1ada6b9-0782-4e18-b2e1-85ab642018a9"
      },
      "payload" : [{
        "extension" : [{
          "url" : "http://medcomfhir.dk/ig/core/StructureDefinition/medcom-core-datetime-extension",
          "valueDateTime" : "2025-09-29T09:00:00+02:00"
        },
        {
          "url" : "http://medcomfhir.dk/ig/core/StructureDefinition/medcom-core-identifier-extension",
          "valueIdentifier" : {
            "value" : "urn:uuid:1d881c60-609f-4dac-9b17-cac3959cd01d",
            "assigner" : {
              "reference" : "Organization/c20dccdc-4a01-4e06-b9f2-5246152794ab"
            }
          }
        },
        {
          "url" : "http://medcomfhir.dk/ig/core/StructureDefinition/medcom-core-practitioner-extension",
          "valueReference" : {
            "reference" : "PractitionerRole/b362049e-9f98-4192-af53-2409cc817560"
          }
        },
        {
          "url" : "http://medcomfhir.dk/ig/core/StructureDefinition/medcom-core-contact-extension",
          "valueContactPoint" : {
            "system" : "phone",
            "value" : "+4512345789"
          }
        }],
        "contentString" : "Dette er en korrespondancemeddelelse med to erstatnings-CPR numre, af hver sin type.\nHilsen Michael, sygeplejerske."
      }]
    }
  },
  {
    "fullUrl" : "https://medcomfhir.dk/ig/carecommunication/PractitionerRole/b362049e-9f98-4192-af53-2409cc817560",
    "resource" : {
      "resourceType" : "PractitionerRole",
      "id" : "b362049e-9f98-4192-af53-2409cc817560",
      "meta" : {
        "profile" : ["http://medcomfhir.dk/ig/core/StructureDefinition/medcom-core-practitionerrole|3.0.1"]
      },
      "text" : {
        "status" : "generated",
        "div" : "<div xmlns=\"http://www.w3.org/1999/xhtml\"><a name=\"PractitionerRole_b362049e-9f98-4192-af53-2409cc817560\"> </a><p class=\"res-header-id\"><b>Generated Narrative: PractitionerRole b362049e-9f98-4192-af53-2409cc817560</b></p><a name=\"b362049e-9f98-4192-af53-2409cc817560\"> </a><a name=\"hcb362049e-9f98-4192-af53-2409cc817560\"> </a><div style=\"display: inline-block; background-color: #d9e0e7; padding: 6px; margin: 4px; border: 1px solid #8da1b4; border-radius: 5px; line-height: 60%\"><p style=\"margin-bottom: 0px\"/><p style=\"margin-bottom: 0px\">Profile: <a href=\"http://medcomfhir.dk/ig/core/3.0.1/StructureDefinition-medcom-core-practitionerrole.html\">MedComCorePractitionerRoleversion: null3.0.1)</a></p></div><p><b>practitioner</b>: <a href=\"Practitioner-ff5d0fe4-730a-4370-9775-1ff8bb033e26.html\">Practitioner Michael Burns </a></p><p><b>code</b>: <span title=\"Codes:{http://medcomfhir.dk/ig/terminology/CodeSystem/medcom-core-PractitionerRolesSKSadministrativ sygeplejerske}\">Sygeplejerske</span></p></div>"
      },
      "practitioner" : {
        "reference" : "Practitioner/ff5d0fe4-730a-4370-9775-1ff8bb033e26"
      },
      "code" : [{
        "coding" : [{
          "system" : "http://medcomfhir.dk/ig/terminology/CodeSystem/medcom-core-PractitionerRolesSKSadministrativ",
          "code" : "sygeplejerske"
        }]
      }]
    }
  },
  {
    "fullUrl" : "https://medcomfhir.dk/ig/carecommunication/Practitioner/ff5d0fe4-730a-4370-9775-1ff8bb033e26",
    "resource" : {
      "resourceType" : "Practitioner",
      "id" : "ff5d0fe4-730a-4370-9775-1ff8bb033e26",
      "meta" : {
        "profile" : ["http://medcomfhir.dk/ig/core/StructureDefinition/medcom-core-practitioner|3.0.1"]
      },
      "text" : {
        "status" : "generated",
        "div" : "<div xmlns=\"http://www.w3.org/1999/xhtml\"><a name=\"Practitioner_ff5d0fe4-730a-4370-9775-1ff8bb033e26\"> </a><p class=\"res-header-id\"><b>Generated Narrative: Practitioner ff5d0fe4-730a-4370-9775-1ff8bb033e26</b></p><a name=\"ff5d0fe4-730a-4370-9775-1ff8bb033e26\"> </a><a name=\"hcff5d0fe4-730a-4370-9775-1ff8bb033e26\"> </a><div style=\"display: inline-block; background-color: #d9e0e7; padding: 6px; margin: 4px; border: 1px solid #8da1b4; border-radius: 5px; line-height: 60%\"><p style=\"margin-bottom: 0px\"/><p style=\"margin-bottom: 0px\">Profile: <a href=\"http://medcomfhir.dk/ig/core/3.0.1/StructureDefinition-medcom-core-practitioner.html\">MedComCorePractitionerversion: null3.0.1)</a></p></div><p><b>name</b>: Michael Burns </p></div>"
      },
      "name" : [{
        "family" : "Burns",
        "given" : ["Michael"]
      }]
    }
  },
  {
    "fullUrl" : "https://medcomfhir.dk/ig/carecommunication/Organization/c20dccdc-4a01-4e06-b9f2-5246152794ab",
    "resource" : {
      "resourceType" : "Organization",
      "id" : "c20dccdc-4a01-4e06-b9f2-5246152794ab",
      "meta" : {
        "profile" : ["http://medcomfhir.dk/ig/messaging/StructureDefinition/medcom-messaging-organization|4.0.1"]
      },
      "text" : {
        "status" : "generated",
        "div" : "<div xmlns=\"http://www.w3.org/1999/xhtml\"><a name=\"Organization_c20dccdc-4a01-4e06-b9f2-5246152794ab\"> </a><p class=\"res-header-id\"><b>Generated Narrative: Organization c20dccdc-4a01-4e06-b9f2-5246152794ab</b></p><a name=\"c20dccdc-4a01-4e06-b9f2-5246152794ab\"> </a><a name=\"hcc20dccdc-4a01-4e06-b9f2-5246152794ab\"> </a><div style=\"display: inline-block; background-color: #d9e0e7; padding: 6px; margin: 4px; border: 1px solid #8da1b4; border-radius: 5px; line-height: 60%\"><p style=\"margin-bottom: 0px\"/><p style=\"margin-bottom: 0px\">Profile: <a href=\"http://medcomfhir.dk/ig/messaging/4.0.1/StructureDefinition-medcom-messaging-organization.html\">MedComMessagingOrganizationversion: null4.0.1)</a></p></div><p><b>identifier</b>: <code>https://www.gs1.org/gln</code>/5790000120314, <code>urn:oid:1.2.208.176.1.1</code>/325371000016006</p><p><b>name</b>: MedCom FDIS91</p></div>"
      },
      "identifier" : [{
        "system" : "https://www.gs1.org/gln",
        "value" : "5790000120314"
      },
      {
        "system" : "urn:oid:1.2.208.176.1.1",
        "value" : "325371000016006"
      }],
      "name" : "MedCom FDIS91"
    }
  },
  {
    "fullUrl" : "https://medcomfhir.dk/ig/carecommunication/Organization/2af0aac8-cfe4-4fe9-865f-1542f02f5470",
    "resource" : {
      "resourceType" : "Organization",
      "id" : "2af0aac8-cfe4-4fe9-865f-1542f02f5470",
      "meta" : {
        "profile" : ["http://medcomfhir.dk/ig/messaging/StructureDefinition/medcom-messaging-organization|4.0.1"]
      },
      "text" : {
        "status" : "generated",
        "div" : "<div xmlns=\"http://www.w3.org/1999/xhtml\"><a name=\"Organization_2af0aac8-cfe4-4fe9-865f-1542f02f5470\"> </a><p class=\"res-header-id\"><b>Generated Narrative: Organization 2af0aac8-cfe4-4fe9-865f-1542f02f5470</b></p><a name=\"2af0aac8-cfe4-4fe9-865f-1542f02f5470\"> </a><a name=\"hc2af0aac8-cfe4-4fe9-865f-1542f02f5470\"> </a><div style=\"display: inline-block; background-color: #d9e0e7; padding: 6px; margin: 4px; border: 1px solid #8da1b4; border-radius: 5px; line-height: 60%\"><p style=\"margin-bottom: 0px\"/><p style=\"margin-bottom: 0px\">Profile: <a href=\"http://medcomfhir.dk/ig/messaging/4.0.1/StructureDefinition-medcom-messaging-organization.html\">MedComMessagingOrganizationversion: null4.0.1)</a></p></div><p><b>identifier</b>: <code>https://www.gs1.org/gln</code>/5790000121526, <code>urn:oid:1.2.208.176.1.1</code>/325251000016005</p><p><b>name</b>: MedCom XDIS91</p></div>"
      },
      "identifier" : [{
        "system" : "https://www.gs1.org/gln",
        "value" : "5790000121526"
      },
      {
        "system" : "urn:oid:1.2.208.176.1.1",
        "value" : "325251000016005"
      }],
      "name" : "MedCom XDIS91"
    }
  },
  {
    "fullUrl" : "https://medcomfhir.dk/ig/carecommunication/Provenance/792ec529-aa61-44cc-97f9-b9a5b446b4fe",
    "resource" : {
      "resourceType" : "Provenance",
      "id" : "792ec529-aa61-44cc-97f9-b9a5b446b4fe",
      "meta" : {
        "profile" : ["http://medcomfhir.dk/ig/carecommunication/StructureDefinition/medcom-careCommunication-provenance"]
      },
      "text" : {
        "status" : "generated",
        "div" : "<div xmlns=\"http://www.w3.org/1999/xhtml\"><a name=\"Provenance_792ec529-aa61-44cc-97f9-b9a5b446b4fe\"> </a><p class=\"res-header-id\"><b>Generated Narrative: Provenance 792ec529-aa61-44cc-97f9-b9a5b446b4fe</b></p><a name=\"792ec529-aa61-44cc-97f9-b9a5b446b4fe\"> </a><a name=\"hc792ec529-aa61-44cc-97f9-b9a5b446b4fe\"> </a><div style=\"display: inline-block; background-color: #d9e0e7; padding: 6px; margin: 4px; border: 1px solid #8da1b4; border-radius: 5px; line-height: 60%\"><p style=\"margin-bottom: 0px\"/><p style=\"margin-bottom: 0px\">Profile: <a href=\"http://medcomfhir.dk/ig/carecommunication/5.0.1/StructureDefinition-medcom-careCommunication-provenance.html\">MedComCareCommunicationProvenance</a></p></div><p>Provenance for <a href=\"MessageHeader-73893146-ff6f-4455-99c3-9126c74d16a2.html\">MessageHeader: event[x] = Care Communication Message (MedComMessagingEventCodes#care-communication-message); definition = http://medcomfhir.dk/ig/messagedefinitions/MessageDefinition/MedComCareCommunicationMessageDefinition|5.0</a></p><p>Summary</p><table class=\"grid\"><tr><td>Occurrence</td><td>2025-09-29 09:00:00+0200</td></tr><tr><td>Recorded</td><td>2025-09-29 09:00:00+0200</td></tr><tr><td>Activity</td><td><span title=\"Codes:{http://medcomfhir.dk/ig/terminology/CodeSystem/medcom-messaging-activityCodes new-message}\">A new message has been sent</span></td></tr></table><p><b>Agents</b></p><table class=\"grid\"><tr><td><b>who</b></td></tr><tr><td><a href=\"Organization-c20dccdc-4a01-4e06-b9f2-5246152794ab.html\">Organization MedCom FDIS91</a></td></tr></table></div>"
      },
      "target" : [{
        "reference" : "MessageHeader/73893146-ff6f-4455-99c3-9126c74d16a2"
      }],
      "occurredDateTime" : "2025-09-29T09:00:00+02:00",
      "recorded" : "2025-09-29T09:00:00+02:00",
      "activity" : {
        "coding" : [{
          "system" : "http://medcomfhir.dk/ig/terminology/CodeSystem/medcom-messaging-activityCodes",
          "code" : "new-message"
        }]
      },
      "agent" : [{
        "who" : {
          "reference" : "Organization/c20dccdc-4a01-4e06-b9f2-5246152794ab"
        }
      }],
      "entity" : [{
        "role" : "source",
        "what" : {
          "identifier" : {
            "value" : "urn:uuid:1d881c60-609f-4dac-9b17-cac3959cd01d"
          }
        }
      }]
    }
  }]
}