<?xml version="1.0" encoding="UTF-8"?>

<Bundle xmlns="http://hl7.org/fhir">
  <id value="R-C-forward-8352b67a-23b2-44c5-b43a-725270a90722"/>
  <meta>
    <profile value="http://medcomfhir.dk/ig/carecommunication/StructureDefinition/medcom-careCommunication-message|5.0.1"/>
  </meta>
  <type value="message"/>
  <timestamp value="2024-08-16T11:30:00+02:00"/>
  <entry>
    <fullUrl value="https://medcomfhir.dk/ig/carecommunication/MessageHeader/d2b81c34-ec5d-4c5f-9380-1b5aa507544b"/>
    <resource>
      <MessageHeader>
        <id value="d2b81c34-ec5d-4c5f-9380-1b5aa507544b"/>
        <meta>
          <profile value="http://medcomfhir.dk/ig/carecommunication/StructureDefinition/medcom-careCommunication-messageHeader|5.0.1"/>
        </meta>
        <text>
          <status value="generated"/><div xmlns="http://www.w3.org/1999/xhtml"><a name="MessageHeader_d2b81c34-ec5d-4c5f-9380-1b5aa507544b"> </a><p class="res-header-id"><b>Generated Narrative: MessageHeader d2b81c34-ec5d-4c5f-9380-1b5aa507544b</b></p><a name="d2b81c34-ec5d-4c5f-9380-1b5aa507544b"> </a><a name="hcd2b81c34-ec5d-4c5f-9380-1b5aa507544b"> </a><div style="display: inline-block; background-color: #d9e0e7; padding: 6px; margin: 4px; border: 1px solid #8da1b4; border-radius: 5px; line-height: 60%"><p style="margin-bottom: 0px"/><p style="margin-bottom: 0px">Profile: <a href="http://medcomfhir.dk/ig/carecommunication/5.0.1/StructureDefinition-medcom-careCommunication-messageHeader.html">MedComCareCommunicationMessageHeaderversion: null5.0.1)</a></p></div><p><b>event</b>: <a href="http://medcomfhir.dk/ig/terminology/2.0.1/CodeSystem-medcom-messaging-eventCodes.html#medcom-messaging-eventCodes-care-communication-message">MedComMessagingEventCodes care-communication-message</a>: Care Communication Message</p><h3>Destinations</h3><table class="grid"><tr><td style="display: none">-</td><td><b>Extension</b></td><td><b>Endpoint</b></td><td><b>Receiver</b></td></tr><tr><td style="display: none">*</td><td/><td><a href="https://sor2.sum.dsdn.dk/#id=330461000016004">https://sor2.sum.dsdn.dk/#id=330461000016004</a></td><td><a href="Organization-a81d6555-94d9-4704-a6b7-8dea0bcd3dac.html">Organization Sundhedsplejen, Aabenraa kommune</a></td></tr></table><p><b>sender</b>: <a href="Organization-ca5a7c53-fc3a-4565-b419-a443c3bc6870.html">Organization Hjemmesygeplejen, Aalborg kommune</a></p><h3>Sources</h3><table class="grid"><tr><td style="display: none">-</td><td><b>Endpoint</b></td></tr><tr><td style="display: none">*</td><td><a href="https://sor2.sum.dsdn.dk/#id=328081000016004">https://sor2.sum.dsdn.dk/#id=328081000016004</a></td></tr></table><p><b>focus</b>: <a href="Communication-e37c9933-1fc6-48e0-9819-66bc026cf3d4.html">Communication: identifier = urn:uuid:bb5aba27-2112-434a-ac3f-d317ba7a70cd; status = unknown; category = Undersøgelsessvar; topic = </a></p><p><b>definition</b>: <a href="http://medcomfhir.dk/ig/messagedefinitions/1.0.0/MessageDefinition-MedComCareCommunicationMessageDefinitionV5.0.html">http://medcomfhir.dk/ig/messagedefinitions/MessageDefinition/MedComCareCommunicationMessageDefinition|5.0</a></p></div>
        </text>
        <eventCoding>
          <system value="http://medcomfhir.dk/ig/terminology/CodeSystem/medcom-messaging-eventCodes"/>
          <code value="care-communication-message"/>
        </eventCoding>
        <destination>
          <extension url="http://medcomfhir.dk/ig/messaging/StructureDefinition/medcom-messaging-destinationUseExtension">
            <valueCoding>
              <system value="http://medcomfhir.dk/ig/terminology/CodeSystem/medcom-messaging-destinationUse"/>
              <code value="primary"/>
            </valueCoding>
          </extension>
          <endpoint value="https://sor2.sum.dsdn.dk/#id=330461000016004"/>
          <receiver>
            <reference value="Organization/a81d6555-94d9-4704-a6b7-8dea0bcd3dac"/>
          </receiver>
        </destination>
        <sender>
          <reference value="Organization/ca5a7c53-fc3a-4565-b419-a443c3bc6870"/>
        </sender>
        <source>
          <endpoint value="https://sor2.sum.dsdn.dk/#id=328081000016004"/>
        </source>
        <focus>
          <reference value="Communication/e37c9933-1fc6-48e0-9819-66bc026cf3d4"/>
        </focus>
        <definition value="http://medcomfhir.dk/ig/messagedefinitions/MessageDefinition/MedComCareCommunicationMessageDefinition|5.0"/>
      </MessageHeader>
    </resource>
  </entry>
  <entry>
    <fullUrl value="https://medcomfhir.dk/ig/carecommunication/Patient/1c4dbd72-4af3-41f9-a9b5-dacd8d62f994"/>
    <resource>
      <Patient>
        <id value="1c4dbd72-4af3-41f9-a9b5-dacd8d62f994"/>
        <meta>
          <profile value="http://medcomfhir.dk/ig/core/StructureDefinition/medcom-core-patient|3.0.1"/>
        </meta>
        <text>
          <status value="generated"/><div xmlns="http://www.w3.org/1999/xhtml"><a name="Patient_1c4dbd72-4af3-41f9-a9b5-dacd8d62f994"> </a><p class="res-header-id"><b>Generated Narrative: Patient 1c4dbd72-4af3-41f9-a9b5-dacd8d62f994</b></p><a name="1c4dbd72-4af3-41f9-a9b5-dacd8d62f994"> </a><a name="hc1c4dbd72-4af3-41f9-a9b5-dacd8d62f994"> </a><div style="display: inline-block; background-color: #d9e0e7; padding: 6px; margin: 4px; border: 1px solid #8da1b4; border-radius: 5px; line-height: 60%"><p style="margin-bottom: 0px"/><p style="margin-bottom: 0px">Profile: <a href="http://medcomfhir.dk/ig/core/3.0.1/StructureDefinition-medcom-core-patient.html">MedComCorePatientversion: null3.0.1)</a></p></div><p style="border: 1px #661aff solid; background-color: #e6e6ff; padding: 10px;">Bruno Test Elmer (official) (no stated gender), DoB Unknown ( urn:oid:1.2.208.176.1.2#2509479989)</p><hr/></div>
        </text>
        <identifier>
          <system value="urn:oid:1.2.208.176.1.2"/>
          <value value="2509479989"/>
        </identifier>
        <name>
          <use value="official"/>
          <family value="Elmer"/>
          <given value="Bruno"/>
          <given value="Test"/>
        </name>
      </Patient>
    </resource>
  </entry>
  <entry>
    <fullUrl value="https://medcomfhir.dk/ig/carecommunication/Communication/e37c9933-1fc6-48e0-9819-66bc026cf3d4"/>
    <resource>
      <Communication>
        <id value="e37c9933-1fc6-48e0-9819-66bc026cf3d4"/>
        <meta>
          <profile value="http://medcomfhir.dk/ig/carecommunication/StructureDefinition/medcom-careCommunication-communication"/>
        </meta>
        <text>
          <status value="extensions"/><div xmlns="http://www.w3.org/1999/xhtml"><a name="Communication_e37c9933-1fc6-48e0-9819-66bc026cf3d4"> </a><p class="res-header-id"><b>Generated Narrative: Communication e37c9933-1fc6-48e0-9819-66bc026cf3d4</b></p><a name="e37c9933-1fc6-48e0-9819-66bc026cf3d4"> </a><a name="hce37c9933-1fc6-48e0-9819-66bc026cf3d4"> </a><div style="display: inline-block; background-color: #d9e0e7; padding: 6px; margin: 4px; border: 1px solid #8da1b4; border-radius: 5px; line-height: 60%"><p style="margin-bottom: 0px"/><p style="margin-bottom: 0px">Profile: <a href="http://medcomfhir.dk/ig/carecommunication/5.0.1/StructureDefinition-medcom-careCommunication-communication.html">MedComCareCommunication</a></p></div><p><b>identifier</b>: urn:uuid:bb5aba27-2112-434a-ac3f-d317ba7a70cd</p><p><b>status</b>: Unknown</p><p><b>category</b>: <span title="Codes:{http://medcomfhir.dk/ig/terminology/CodeSystem/medcom-careCommunication-categoryCodes examination-results}">Undersøgelsessvar</span></p><p><b>subject</b>: <a href="Patient-1c4dbd72-4af3-41f9-a9b5-dacd8d62f994.html">Bruno Test Elmer (official) (no stated gender), DoB Unknown ( urn:oid:1.2.208.176.1.2#2509479989)</a></p><p><b>topic</b>: <span title="Codes:">Resultater fra hjemmesygeplejen</span></p><blockquote><p><b>payload</b></p><p><b>DateTimeExtension</b>: 2024-08-15 15:20:00+0200</p><p><b>IdentifierExtension</b>: urn:uuid:d189f0c2-8397-4cae-b62c-0d0958b4899a</p><p><b>PractitionerExtension</b>: <a href="PractitionerRole-da0ffcef-7cdd-43be-a462-47caa7abc8a8.html">PractitionerRole Sygeplejerske</a></p><p><b>ContactExtension</b>: ph: 38683868</p><p><b>content</b>: Til rette vedkommende. Vi ønsker information om de seneste undersøgelser udført på Bruno. På forhånd tak.
 Hilsen Michael Burns 
 Sygeplejerske</p></blockquote><blockquote><p><b>payload</b></p><p><b>DateTimeExtension</b>: 2024-08-16 11:30:00+0200</p><p><b>IdentifierExtension</b>: urn:uuid:4fa05d8d-66e7-46dd-8029-428d44d33f53</p><p><b>PractitionerExtension</b>: <a href="PractitionerRole-6666a833-8621-475a-9fc5-a34b1a043a03.html">PractitionerRole Optiker</a></p><p><b>ContactExtension</b>: ph: 004523232323</p><p><b>content</b>: Hej, jeg videresender nedenstående besked til jer, da I har udført undersøgelserne på Bruno. Svar venligst direkte til Michael fra Hjerteafdelingen på Herlev og Gentofte hospital.
Med venlig hilsen Emma Waters
Optiker</p></blockquote></div>
        </text>
        <identifier>
          <value value="urn:uuid:bb5aba27-2112-434a-ac3f-d317ba7a70cd"/>
        </identifier>
        <status value="unknown"/>
        <category>
          <coding>
            <system value="http://medcomfhir.dk/ig/terminology/CodeSystem/medcom-careCommunication-categoryCodes"/>
            <code value="examination-results"/>
          </coding>
        </category>
        <subject>
          <reference value="Patient/1c4dbd72-4af3-41f9-a9b5-dacd8d62f994"/>
        </subject>
        <topic>
          <text value="Resultater fra hjemmesygeplejen"/>
        </topic>
        <payload>
          <extension url="http://medcomfhir.dk/ig/core/StructureDefinition/medcom-core-datetime-extension">
            <valueDateTime value="2024-08-15T15:20:00+02:00"/>
          </extension>
          <extension url="http://medcomfhir.dk/ig/core/StructureDefinition/medcom-core-identifier-extension">
            <valueIdentifier>
              <value value="urn:uuid:d189f0c2-8397-4cae-b62c-0d0958b4899a"/>
              <assigner>
                <reference value="Organization/8b67e42d-fc9b-45c4-8313-86b9c7416445"/>
              </assigner>
            </valueIdentifier>
          </extension>
          <extension url="http://medcomfhir.dk/ig/core/StructureDefinition/medcom-core-practitioner-extension">
            <valueReference>
              <reference value="PractitionerRole/da0ffcef-7cdd-43be-a462-47caa7abc8a8"/>
            </valueReference>
          </extension>
          <extension url="http://medcomfhir.dk/ig/core/StructureDefinition/medcom-core-contact-extension">
            <valueContactPoint>
              <system value="phone"/>
              <value value="38683868"/>
            </valueContactPoint>
          </extension>
          <contentString value="Til rette vedkommende. Vi ønsker information om de seneste undersøgelser udført på Bruno. På forhånd tak.&#xA; Hilsen Michael Burns &#xA; Sygeplejerske"/>
        </payload>
        <payload>
          <extension url="http://medcomfhir.dk/ig/core/StructureDefinition/medcom-core-datetime-extension">
            <valueDateTime value="2024-08-16T11:30:00+02:00"/>
          </extension>
          <extension url="http://medcomfhir.dk/ig/core/StructureDefinition/medcom-core-identifier-extension">
            <valueIdentifier>
              <value value="urn:uuid:4fa05d8d-66e7-46dd-8029-428d44d33f53"/>
              <assigner>
                <reference value="Organization/ca5a7c53-fc3a-4565-b419-a443c3bc6870"/>
              </assigner>
            </valueIdentifier>
          </extension>
          <extension url="http://medcomfhir.dk/ig/core/StructureDefinition/medcom-core-practitioner-extension">
            <valueReference>
              <reference value="PractitionerRole/6666a833-8621-475a-9fc5-a34b1a043a03"/>
            </valueReference>
          </extension>
          <extension url="http://medcomfhir.dk/ig/core/StructureDefinition/medcom-core-contact-extension">
            <valueContactPoint>
              <system value="phone"/>
              <value value="004523232323"/>
            </valueContactPoint>
          </extension>
          <contentString value="Hej, jeg videresender nedenstående besked til jer, da I har udført undersøgelserne på Bruno. Svar venligst direkte til Michael fra Hjerteafdelingen på Herlev og Gentofte hospital.&#xA;Med venlig hilsen Emma Waters&#xA;Optiker"/>
        </payload>
      </Communication>
    </resource>
  </entry>
  <entry>
    <fullUrl value="https://medcomfhir.dk/ig/carecommunication/PractitionerRole/6666a833-8621-475a-9fc5-a34b1a043a03"/>
    <resource>
      <PractitionerRole>
        <id value="6666a833-8621-475a-9fc5-a34b1a043a03"/>
        <meta>
          <profile value="http://medcomfhir.dk/ig/core/StructureDefinition/medcom-core-practitionerrole|3.0.1"/>
        </meta>
        <text>
          <status value="generated"/><div xmlns="http://www.w3.org/1999/xhtml"><a name="PractitionerRole_6666a833-8621-475a-9fc5-a34b1a043a03"> </a><p class="res-header-id"><b>Generated Narrative: PractitionerRole 6666a833-8621-475a-9fc5-a34b1a043a03</b></p><a name="6666a833-8621-475a-9fc5-a34b1a043a03"> </a><a name="hc6666a833-8621-475a-9fc5-a34b1a043a03"> </a><div style="display: inline-block; background-color: #d9e0e7; padding: 6px; margin: 4px; border: 1px solid #8da1b4; border-radius: 5px; line-height: 60%"><p style="margin-bottom: 0px"/><p style="margin-bottom: 0px">Profile: <a href="http://medcomfhir.dk/ig/core/3.0.1/StructureDefinition-medcom-core-practitionerrole.html">MedComCorePractitionerRoleversion: null3.0.1)</a></p></div><p><b>practitioner</b>: <a href="Practitioner-06d61404-9502-4579-9475-4e3ddd071bc5.html">Practitioner Emma Waters </a></p><p><b>code</b>: <span title="Codes:{http://medcomfhir.dk/ig/terminology/CodeSystem/medcom-core-PractitionerRolesSKSadministrativ optiker}">Optiker</span></p></div>
        </text>
        <practitioner>
          <reference value="Practitioner/06d61404-9502-4579-9475-4e3ddd071bc5"/>
        </practitioner>
        <code>
          <coding>
            <system value="http://medcomfhir.dk/ig/terminology/CodeSystem/medcom-core-PractitionerRolesSKSadministrativ"/>
            <code value="optiker"/>
          </coding>
        </code>
      </PractitionerRole>
    </resource>
  </entry>
  <entry>
    <fullUrl value="https://medcomfhir.dk/ig/carecommunication/Practitioner/06d61404-9502-4579-9475-4e3ddd071bc5"/>
    <resource>
      <Practitioner>
        <id value="06d61404-9502-4579-9475-4e3ddd071bc5"/>
        <meta>
          <profile value="http://medcomfhir.dk/ig/core/StructureDefinition/medcom-core-practitioner|3.0.1"/>
        </meta>
        <text>
          <status value="generated"/><div xmlns="http://www.w3.org/1999/xhtml"><a name="Practitioner_06d61404-9502-4579-9475-4e3ddd071bc5"> </a><p class="res-header-id"><b>Generated Narrative: Practitioner 06d61404-9502-4579-9475-4e3ddd071bc5</b></p><a name="06d61404-9502-4579-9475-4e3ddd071bc5"> </a><a name="hc06d61404-9502-4579-9475-4e3ddd071bc5"> </a><div style="display: inline-block; background-color: #d9e0e7; padding: 6px; margin: 4px; border: 1px solid #8da1b4; border-radius: 5px; line-height: 60%"><p style="margin-bottom: 0px"/><p style="margin-bottom: 0px">Profile: <a href="http://medcomfhir.dk/ig/core/3.0.1/StructureDefinition-medcom-core-practitioner.html">MedComCorePractitionerversion: null3.0.1)</a></p></div><p><b>name</b>: Emma Waters </p></div>
        </text>
        <name>
          <family value="Waters"/>
          <given value="Emma"/>
        </name>
      </Practitioner>
    </resource>
  </entry>
  <entry>
    <fullUrl value="https://medcomfhir.dk/ig/carecommunication/PractitionerRole/da0ffcef-7cdd-43be-a462-47caa7abc8a8"/>
    <resource>
      <PractitionerRole>
        <id value="da0ffcef-7cdd-43be-a462-47caa7abc8a8"/>
        <meta>
          <profile value="http://medcomfhir.dk/ig/core/StructureDefinition/medcom-core-practitionerrole"/>
        </meta>
        <text>
          <status value="generated"/><div xmlns="http://www.w3.org/1999/xhtml"><a name="PractitionerRole_da0ffcef-7cdd-43be-a462-47caa7abc8a8"> </a><p class="res-header-id"><b>Generated Narrative: PractitionerRole da0ffcef-7cdd-43be-a462-47caa7abc8a8</b></p><a name="da0ffcef-7cdd-43be-a462-47caa7abc8a8"> </a><a name="hcda0ffcef-7cdd-43be-a462-47caa7abc8a8"> </a><div style="display: inline-block; background-color: #d9e0e7; padding: 6px; margin: 4px; border: 1px solid #8da1b4; border-radius: 5px; line-height: 60%"><p style="margin-bottom: 0px"/><p style="margin-bottom: 0px">Profile: <a href="http://medcomfhir.dk/ig/core/3.0.1/StructureDefinition-medcom-core-practitionerrole.html">MedComCorePractitionerRole</a></p></div><p><b>practitioner</b>: <a href="Practitioner-d0d09ee7-ac4c-4beb-839c-85763d50c7a4.html">Practitioner Michael Burns </a></p><p><b>code</b>: <span title="Codes:{http://medcomfhir.dk/ig/terminology/CodeSystem/medcom-core-PractitionerRolesSKSadministrativ sygeplejerske}">Sygeplejerske</span></p></div>
        </text>
        <practitioner>
          <reference value="Practitioner/d0d09ee7-ac4c-4beb-839c-85763d50c7a4"/>
        </practitioner>
        <code>
          <coding>
            <system value="http://medcomfhir.dk/ig/terminology/CodeSystem/medcom-core-PractitionerRolesSKSadministrativ"/>
            <code value="sygeplejerske"/>
          </coding>
        </code>
      </PractitionerRole>
    </resource>
  </entry>
  <entry>
    <fullUrl value="https://medcomfhir.dk/ig/carecommunication/Practitioner/d0d09ee7-ac4c-4beb-839c-85763d50c7a4"/>
    <resource>
      <Practitioner>
        <id value="d0d09ee7-ac4c-4beb-839c-85763d50c7a4"/>
        <meta>
          <profile value="http://medcomfhir.dk/ig/core/StructureDefinition/medcom-core-practitioner"/>
        </meta>
        <text>
          <status value="generated"/><div xmlns="http://www.w3.org/1999/xhtml"><a name="Practitioner_d0d09ee7-ac4c-4beb-839c-85763d50c7a4"> </a><p class="res-header-id"><b>Generated Narrative: Practitioner d0d09ee7-ac4c-4beb-839c-85763d50c7a4</b></p><a name="d0d09ee7-ac4c-4beb-839c-85763d50c7a4"> </a><a name="hcd0d09ee7-ac4c-4beb-839c-85763d50c7a4"> </a><div style="display: inline-block; background-color: #d9e0e7; padding: 6px; margin: 4px; border: 1px solid #8da1b4; border-radius: 5px; line-height: 60%"><p style="margin-bottom: 0px"/><p style="margin-bottom: 0px">Profile: <a href="http://medcomfhir.dk/ig/core/3.0.1/StructureDefinition-medcom-core-practitioner.html">MedComCorePractitioner</a></p></div><p><b>name</b>: Michael Burns </p></div>
        </text>
        <name>
          <family value="Burns"/>
          <given value="Michael"/>
        </name>
      </Practitioner>
    </resource>
  </entry>
  <entry>
    <fullUrl value="https://medcomfhir.dk/ig/carecommunication/Organization/a81d6555-94d9-4704-a6b7-8dea0bcd3dac"/>
    <resource>
      <Organization>
        <id value="a81d6555-94d9-4704-a6b7-8dea0bcd3dac"/>
        <meta>
          <profile value="http://medcomfhir.dk/ig/messaging/StructureDefinition/medcom-messaging-organization|4.0.1"/>
        </meta>
        <text>
          <status value="generated"/><div xmlns="http://www.w3.org/1999/xhtml"><a name="Organization_a81d6555-94d9-4704-a6b7-8dea0bcd3dac"> </a><p class="res-header-id"><b>Generated Narrative: Organization a81d6555-94d9-4704-a6b7-8dea0bcd3dac</b></p><a name="a81d6555-94d9-4704-a6b7-8dea0bcd3dac"> </a><a name="hca81d6555-94d9-4704-a6b7-8dea0bcd3dac"> </a><div style="display: inline-block; background-color: #d9e0e7; padding: 6px; margin: 4px; border: 1px solid #8da1b4; border-radius: 5px; line-height: 60%"><p style="margin-bottom: 0px"/><p style="margin-bottom: 0px">Profile: <a href="http://medcomfhir.dk/ig/messaging/4.0.1/StructureDefinition-medcom-messaging-organization.html">MedComMessagingOrganizationversion: null4.0.1)</a></p></div><p><b>identifier</b>: <code>https://www.gs1.org/gln</code>/5790001353308, <code>urn:oid:1.2.208.176.1.1</code>/330461000016004</p><p><b>name</b>: Sundhedsplejen, Aabenraa kommune</p></div>
        </text>
        <identifier>
          <system value="https://www.gs1.org/gln"/>
          <value value="5790001353308"/>
        </identifier>
        <identifier>
          <system value="urn:oid:1.2.208.176.1.1"/>
          <value value="330461000016004"/>
        </identifier>
        <name value="Sundhedsplejen, Aabenraa kommune"/>
      </Organization>
    </resource>
  </entry>
  <entry>
    <fullUrl value="https://medcomfhir.dk/ig/carecommunication/Organization/ca5a7c53-fc3a-4565-b419-a443c3bc6870"/>
    <resource>
      <Organization>
        <id value="ca5a7c53-fc3a-4565-b419-a443c3bc6870"/>
        <meta>
          <profile value="http://medcomfhir.dk/ig/messaging/StructureDefinition/medcom-messaging-organization|4.0.1"/>
        </meta>
        <text>
          <status value="generated"/><div xmlns="http://www.w3.org/1999/xhtml"><a name="Organization_ca5a7c53-fc3a-4565-b419-a443c3bc6870"> </a><p class="res-header-id"><b>Generated Narrative: Organization ca5a7c53-fc3a-4565-b419-a443c3bc6870</b></p><a name="ca5a7c53-fc3a-4565-b419-a443c3bc6870"> </a><a name="hcca5a7c53-fc3a-4565-b419-a443c3bc6870"> </a><div style="display: inline-block; background-color: #d9e0e7; padding: 6px; margin: 4px; border: 1px solid #8da1b4; border-radius: 5px; line-height: 60%"><p style="margin-bottom: 0px"/><p style="margin-bottom: 0px">Profile: <a href="http://medcomfhir.dk/ig/messaging/4.0.1/StructureDefinition-medcom-messaging-organization.html">MedComMessagingOrganizationversion: null4.0.1)</a></p></div><p><b>identifier</b>: <code>https://www.gs1.org/gln</code>/5790000121786, <code>urn:oid:1.2.208.176.1.1</code>/328081000016004</p><p><b>name</b>: Hjemmesygeplejen, Aalborg kommune</p></div>
        </text>
        <identifier>
          <system value="https://www.gs1.org/gln"/>
          <value value="5790000121786"/>
        </identifier>
        <identifier>
          <system value="urn:oid:1.2.208.176.1.1"/>
          <value value="328081000016004"/>
        </identifier>
        <name value="Hjemmesygeplejen, Aalborg kommune"/>
      </Organization>
    </resource>
  </entry>
  <entry>
    <fullUrl value="https://medcomfhir.dk/ig/carecommunication/Organization/8b67e42d-fc9b-45c4-8313-86b9c7416445"/>
    <resource>
      <Organization>
        <id value="8b67e42d-fc9b-45c4-8313-86b9c7416445"/>
        <meta>
          <profile value="http://medcomfhir.dk/ig/messaging/StructureDefinition/medcom-messaging-organization|4.0.1"/>
        </meta>
        <text>
          <status value="generated"/><div xmlns="http://www.w3.org/1999/xhtml"><a name="Organization_8b67e42d-fc9b-45c4-8313-86b9c7416445"> </a><p class="res-header-id"><b>Generated Narrative: Organization 8b67e42d-fc9b-45c4-8313-86b9c7416445</b></p><a name="8b67e42d-fc9b-45c4-8313-86b9c7416445"> </a><a name="hc8b67e42d-fc9b-45c4-8313-86b9c7416445"> </a><div style="display: inline-block; background-color: #d9e0e7; padding: 6px; margin: 4px; border: 1px solid #8da1b4; border-radius: 5px; line-height: 60%"><p style="margin-bottom: 0px"/><p style="margin-bottom: 0px">Profile: <a href="http://medcomfhir.dk/ig/messaging/4.0.1/StructureDefinition-medcom-messaging-organization.html">MedComMessagingOrganizationversion: null4.0.1)</a></p></div><p><b>identifier</b>: <code>https://www.gs1.org/gln</code>/5790001387419, <code>urn:oid:1.2.208.176.1.1</code>/953751000016007</p></div>
        </text>
        <identifier>
          <system value="https://www.gs1.org/gln"/>
          <value value="5790001387419"/>
        </identifier>
        <identifier>
          <system value="urn:oid:1.2.208.176.1.1"/>
          <value value="953751000016007"/>
        </identifier>
      </Organization>
    </resource>
  </entry>
  <entry>
    <fullUrl value="https://medcomfhir.dk/ig/carecommunication/Provenance/fdb3c81c-e1b3-4cee-866a-334360c162a0"/>
    <resource>
      <Provenance>
        <id value="fdb3c81c-e1b3-4cee-866a-334360c162a0"/>
        <meta>
          <profile value="http://medcomfhir.dk/ig/carecommunication/StructureDefinition/medcom-careCommunication-provenance"/>
        </meta>
        <text>
          <status value="generated"/><div xmlns="http://www.w3.org/1999/xhtml"><a name="Provenance_fdb3c81c-e1b3-4cee-866a-334360c162a0"> </a><p class="res-header-id"><b>Generated Narrative: Provenance fdb3c81c-e1b3-4cee-866a-334360c162a0</b></p><a name="fdb3c81c-e1b3-4cee-866a-334360c162a0"> </a><a name="hcfdb3c81c-e1b3-4cee-866a-334360c162a0"> </a><div style="display: inline-block; background-color: #d9e0e7; padding: 6px; margin: 4px; border: 1px solid #8da1b4; border-radius: 5px; line-height: 60%"><p style="margin-bottom: 0px"/><p style="margin-bottom: 0px">Profile: <a href="http://medcomfhir.dk/ig/carecommunication/5.0.1/StructureDefinition-medcom-careCommunication-provenance.html">MedComCareCommunicationProvenance</a></p></div><p>Provenance for <a href="MessageHeader-d2b81c34-ec5d-4c5f-9380-1b5aa507544b.html">MessageHeader: event[x] = Care Communication Message (MedComMessagingEventCodes#care-communication-message); definition = http://medcomfhir.dk/ig/messagedefinitions/MessageDefinition/MedComCareCommunicationMessageDefinition|5.0</a></p><p>Summary</p><table class="grid"><tr><td>Occurrence</td><td>2024-08-16 11:30:00+0200</td></tr><tr><td>Recorded</td><td>2024-08-16 11:30:00+0200</td></tr><tr><td>Activity</td><td><span title="Codes:{http://medcomfhir.dk/ig/terminology/CodeSystem/medcom-messaging-activityCodes forward-message}">A message has been forwarded and potentially changed</span></td></tr></table><p><b>Agents</b></p><table class="grid"><tr><td><b>who</b></td></tr><tr><td><a href="Organization-ca5a7c53-fc3a-4565-b419-a443c3bc6870.html">Organization Hjemmesygeplejen, Aalborg kommune</a></td></tr></table></div>
        </text>
        <target>
          <reference value="MessageHeader/d2b81c34-ec5d-4c5f-9380-1b5aa507544b"/>
        </target>
        <occurredDateTime value="2024-08-16T11:30:00+02:00"/>
        <recorded value="2024-08-16T11:30:00+02:00"/>
        <activity>
          <coding>
            <system value="http://medcomfhir.dk/ig/terminology/CodeSystem/medcom-messaging-activityCodes"/>
            <code value="forward-message"/>
          </coding>
        </activity>
        <agent>
          <who>
            <reference value="Organization/ca5a7c53-fc3a-4565-b419-a443c3bc6870"/>
          </who>
        </agent>
        <entity>
          <role value="source"/>
          <what>
            <identifier>
              <value value="urn:uuid:4fa05d8d-66e7-46dd-8029-428d44d33f53"/>
            </identifier>
          </what>
        </entity>
        <entity>
          <role value="revision"/>
          <what>
            <reference value="MessageHeader/42fa2844-5020-45dd-bd5f-77137ba5ca1f"/>
          </what>
        </entity>
      </Provenance>
    </resource>
  </entry>
  <entry>
    <fullUrl value="https://medcomfhir.dk/ig/carecommunication/Provenance/45f68408-94e2-48f9-b740-5c487a3e7e56"/>
    <resource>
      <Provenance>
        <id value="45f68408-94e2-48f9-b740-5c487a3e7e56"/>
        <meta>
          <profile value="http://medcomfhir.dk/ig/carecommunication/StructureDefinition/medcom-careCommunication-provenance"/>
        </meta>
        <text>
          <status value="generated"/><div xmlns="http://www.w3.org/1999/xhtml"><a name="Provenance_45f68408-94e2-48f9-b740-5c487a3e7e56"> </a><p class="res-header-id"><b>Generated Narrative: Provenance 45f68408-94e2-48f9-b740-5c487a3e7e56</b></p><a name="45f68408-94e2-48f9-b740-5c487a3e7e56"> </a><a name="hc45f68408-94e2-48f9-b740-5c487a3e7e56"> </a><div style="display: inline-block; background-color: #d9e0e7; padding: 6px; margin: 4px; border: 1px solid #8da1b4; border-radius: 5px; line-height: 60%"><p style="margin-bottom: 0px"/><p style="margin-bottom: 0px">Profile: <a href="http://medcomfhir.dk/ig/carecommunication/5.0.1/StructureDefinition-medcom-careCommunication-provenance.html">MedComCareCommunicationProvenance</a></p></div><p>Provenance for <a href="MessageHeader-42fa2844-5020-45dd-bd5f-77137ba5ca1f.html">MessageHeader: event[x] = Care Communication Message (MedComMessagingEventCodes#care-communication-message); definition = http://medcomfhir.dk/ig/messagedefinitions/MessageDefinition/MedComCareCommunicationMessageDefinition|5.0</a></p><p>Summary</p><table class="grid"><tr><td>Occurrence</td><td>2024-08-15 15:20:00+0200</td></tr><tr><td>Recorded</td><td>2024-08-15 15:20:00+0200</td></tr><tr><td>Activity</td><td><span title="Codes:{http://medcomfhir.dk/ig/terminology/CodeSystem/medcom-messaging-activityCodes new-message}">A new message has been sent</span></td></tr></table><p><b>Agents</b></p><table class="grid"><tr><td><b>who</b></td></tr><tr><td><a href="Organization-8b67e42d-fc9b-45c4-8313-86b9c7416445.html">Organization: identifier = https://www.gs1.org/gln#5790001387419,urn:oid:1.2.208.176.1.1#953751000016007</a></td></tr></table></div>
        </text>
        <target>
          <reference value="MessageHeader/42fa2844-5020-45dd-bd5f-77137ba5ca1f"/>
        </target>
        <occurredDateTime value="2024-08-15T15:20:00+02:00"/>
        <recorded value="2024-08-15T15:20:00+02:00"/>
        <activity>
          <coding>
            <system value="http://medcomfhir.dk/ig/terminology/CodeSystem/medcom-messaging-activityCodes"/>
            <code value="new-message"/>
          </coding>
        </activity>
        <agent>
          <who>
            <reference value="Organization/8b67e42d-fc9b-45c4-8313-86b9c7416445"/>
          </who>
        </agent>
        <entity>
          <role value="source"/>
          <what>
            <identifier>
              <value value="urn:uuid:d189f0c2-8397-4cae-b62c-0d0958b4899a"/>
            </identifier>
          </what>
        </entity>
      </Provenance>
    </resource>
  </entry>
</Bundle>