<?xml version="1.0" encoding="UTF-8"?>

<Bundle xmlns="http://hl7.org/fhir">
  <id value="S-A-new-1932711d-49d0-4ad7-b1ee-61de711892d2"/>
  <meta>
    <profile value="http://medcomfhir.dk/ig/carecommunication/StructureDefinition/medcom-careCommunication-message"/>
  </meta>
  <type value="message"/>
  <timestamp value="2024-09-05T14:00:00+02:00"/>
  <entry>
    <fullUrl value="https://medcomfhir.dk/ig/carecommunication/MessageHeader/0ebb6284-eb20-45eb-8113-6620d2d08608"/>
    <resource>
      <MessageHeader>
        <id value="0ebb6284-eb20-45eb-8113-6620d2d08608"/>
        <meta>
          <profile value="http://medcomfhir.dk/ig/carecommunication/StructureDefinition/medcom-careCommunication-messageHeader"/>
        </meta>
        <text>
          <status value="generated"/><div xmlns="http://www.w3.org/1999/xhtml"><a name="MessageHeader_0ebb6284-eb20-45eb-8113-6620d2d08608"> </a><p class="res-header-id"><b>Generated Narrative: MessageHeader 0ebb6284-eb20-45eb-8113-6620d2d08608</b></p><a name="0ebb6284-eb20-45eb-8113-6620d2d08608"> </a><a name="hc0ebb6284-eb20-45eb-8113-6620d2d08608"> </a><div style="display: inline-block; background-color: #d9e0e7; padding: 6px; margin: 4px; border: 1px solid #8da1b4; border-radius: 5px; line-height: 60%"><p style="margin-bottom: 0px"/><p style="margin-bottom: 0px">Profile: <a href="http://medcomfhir.dk/ig/carecommunication/5.0.0/StructureDefinition-medcom-careCommunication-messageHeader.html">MedComCareCommunicationMessageHeader</a></p></div><p><b>event</b>: <a href="http://medcomfhir.dk/ig/terminology/1.8.1/CodeSystem-medcom-messaging-eventCodes.html#medcom-messaging-eventCodes-care-communication-message">MedComMessagingEventCodes care-communication-message</a>: Care Communication Message</p><h3>Destinations</h3><table class="grid"><tr><td style="display: none">-</td><td><b>Extension</b></td><td><b>Endpoint</b></td><td><b>Receiver</b></td></tr><tr><td style="display: none">*</td><td/><td><a href="https://sor2.sum.dsdn.dk/#id=330461000016004">https://sor2.sum.dsdn.dk/#id=330461000016004</a></td><td><a href="Organization-26bfb2de-a811-4744-9883-9a50c59e710d.html">Organization Sundhedsplejen, Aabenraa kommune</a></td></tr></table><p><b>sender</b>: <a href="Organization-09844b02-9647-49e1-92ae-37dc5c721888.html">Organization Klinik for Ældresygdomme, AUH, Skejby</a></p><h3>Sources</h3><table class="grid"><tr><td style="display: none">-</td><td><b>Endpoint</b></td></tr><tr><td style="display: none">*</td><td><a href="https://sor2.sum.dsdn.dk/#id=441211000016000">https://sor2.sum.dsdn.dk/#id=441211000016000</a></td></tr></table><p><b>focus</b>: <a href="Communication-b2819bfe-07d1-4c26-94a3-a45a702a04a0.html">Communication: extension = -&gt;CareTeam Team +80 år; identifier = urn:uuid:b2eb3d0e-5de5-4de9-b2a3-0ff321ad1c3a; status = unknown; category = acute-ambulant; topic = </a></p><p><b>definition</b>: <a href="http://medcomfhir.dk/ig/messagedefinitions/1.0.0/MessageDefinition-MedComCareCommunicationMessageDefinitionV5.0.html">http://medcomfhir.dk/ig/messagedefinitions/MessageDefinition/MedComCareCommunicationMessageDefinition|5.0</a></p></div>
        </text>
        <eventCoding>
          <system value="http://medcomfhir.dk/ig/terminology/CodeSystem/medcom-messaging-eventCodes"/>
          <code value="care-communication-message"/>
        </eventCoding>
        <destination>
          <extension url="http://medcomfhir.dk/ig/messaging/StructureDefinition/medcom-messaging-destinationUseExtension">
            <valueCoding>
              <system value="http://medcomfhir.dk/ig/terminology/CodeSystem/medcom-messaging-destinationUse"/>
              <code value="primary"/>
            </valueCoding>
          </extension>
          <endpoint value="https://sor2.sum.dsdn.dk/#id=330461000016004"/>
          <receiver>
            <reference value="Organization/26bfb2de-a811-4744-9883-9a50c59e710d"/>
          </receiver>
        </destination>
        <sender>
          <reference value="Organization/09844b02-9647-49e1-92ae-37dc5c721888"/>
        </sender>
        <source>
          <endpoint value="https://sor2.sum.dsdn.dk/#id=441211000016000"/>
        </source>
        <focus>
          <reference value="Communication/b2819bfe-07d1-4c26-94a3-a45a702a04a0"/>
        </focus>
        <definition value="http://medcomfhir.dk/ig/messagedefinitions/MessageDefinition/MedComCareCommunicationMessageDefinition|5.0"/>
      </MessageHeader>
    </resource>
  </entry>
  <entry>
    <fullUrl value="https://medcomfhir.dk/ig/carecommunication/Patient/9fcf448a-4628-45e1-9098-0dd8de0e7e76"/>
    <resource>
      <Patient>
        <id value="9fcf448a-4628-45e1-9098-0dd8de0e7e76"/>
        <meta>
          <profile value="http://medcomfhir.dk/ig/core/StructureDefinition/medcom-core-patient"/>
        </meta>
        <text>
          <status value="generated"/><div xmlns="http://www.w3.org/1999/xhtml"><a name="Patient_9fcf448a-4628-45e1-9098-0dd8de0e7e76"> </a><p class="res-header-id"><b>Generated Narrative: Patient 9fcf448a-4628-45e1-9098-0dd8de0e7e76</b></p><a name="9fcf448a-4628-45e1-9098-0dd8de0e7e76"> </a><a name="hc9fcf448a-4628-45e1-9098-0dd8de0e7e76"> </a><div style="display: inline-block; background-color: #d9e0e7; padding: 6px; margin: 4px; border: 1px solid #8da1b4; border-radius: 5px; line-height: 60%"><p style="margin-bottom: 0px"/><p style="margin-bottom: 0px">Profile: <a href="http://medcomfhir.dk/ig/core/3.0.0/StructureDefinition-medcom-core-patient.html">MedComCorePatient</a></p></div><p style="border: 1px #661aff solid; background-color: #e6e6ff; padding: 10px;">Bruno Elmer (official) (no stated gender), DoB Unknown ( urn:oid:1.2.208.176.1.2#2509479989)</p><hr/></div>
        </text>
        <identifier>
          <system value="urn:oid:1.2.208.176.1.2"/>
          <value value="2509479989"/>
        </identifier>
        <name>
          <use value="official"/>
          <family value="Elmer"/>
          <given value="Bruno"/>
        </name>
      </Patient>
    </resource>
  </entry>
  <entry>
    <fullUrl value="https://medcomfhir.dk/ig/carecommunication/Communication/b2819bfe-07d1-4c26-94a3-a45a702a04a0"/>
    <resource>
      <Communication>
        <id value="b2819bfe-07d1-4c26-94a3-a45a702a04a0"/>
        <meta>
          <profile value="http://medcomfhir.dk/ig/carecommunication/StructureDefinition/medcom-careCommunication-communication"/>
        </meta>
        <text>
          <status value="extensions"/><div xmlns="http://www.w3.org/1999/xhtml"><a name="Communication_b2819bfe-07d1-4c26-94a3-a45a702a04a0"> </a><p class="res-header-id"><b>Generated Narrative: Communication b2819bfe-07d1-4c26-94a3-a45a702a04a0</b></p><a name="b2819bfe-07d1-4c26-94a3-a45a702a04a0"> </a><a name="hcb2819bfe-07d1-4c26-94a3-a45a702a04a0"> </a><div style="display: inline-block; background-color: #d9e0e7; padding: 6px; margin: 4px; border: 1px solid #8da1b4; border-radius: 5px; line-height: 60%"><p style="margin-bottom: 0px"/><p style="margin-bottom: 0px">Profile: <a href="http://medcomfhir.dk/ig/carecommunication/5.0.0/StructureDefinition-medcom-careCommunication-communication.html">MedComCareCommunication</a></p></div><p><b>SenderExtension</b>: <a href="CareTeam-48aa320d-dd35-40b8-a6c0-82312652b720.html">CareTeam Team +80 år</a></p><p><b>identifier</b>: urn:uuid:b2eb3d0e-5de5-4de9-b2a3-0ff321ad1c3a</p><p><b>status</b>: Unknown</p><p><b>category</b>: <span title="Codes:{http://medcomfhir.dk/ig/terminology/CodeSystem/medcom-careCommunication-categoryCodes acute-ambulant}">acute-ambulant</span></p><p><b>subject</b>: <a href="Patient-9fcf448a-4628-45e1-9098-0dd8de0e7e76.html">Bruno Elmer (official) (no stated gender), DoB Unknown ( urn:oid:1.2.208.176.1.2#2509479989)</a></p><p><b>topic</b>: <span title="Codes:">Kritisk tilstand</span></p><p><b>recipient</b>: <a href="PractitionerRole-2d808d61-69ec-4040-b6f8-2be94926f86e.html">PractitionerRole </a></p><blockquote><p><b>payload</b></p><p><b>DateTimeExtension</b>: 2024-09-05 14:00:00+0200</p><p><b>IdentifierExtension</b>: urn:uuid:c87eb7b4-4680-499f-b6dd-49b0581ca5c6</p><p><b>PractitionerExtension</b>: <a href="PractitionerRole-2b9a1598-4147-472c-9f8a-712bb7479c57.html">PractitionerRole Social- og sundhedsmedhjælper</a></p><p><b>ContactExtension</b>: ph: 38683868</p><p><b>content</b>: Til rette vedkommende på Arden Lægehus. Vedr. henvisningen af Elmer fra udskrivelse ønsker, vi at gøre jer opmærksomme på hans kritiske tilstand, som beskrevet i henvisningen. It contains the information you requested over the phone:
Proin aliquet sit amet justo quis auctor. Integer malesuada tempor purus sit amet dictum. Nulla dictum pharetra erat sit amet faucibus. Fusce porttitor, lectus sed volutpat pulvinar, tortor leo sodales elit, non mattis ligula enim dignissim ex. Donec ornare laoreet elit dapibus maximus. Mauris malesuada enim vitae ligula feugiat, eget rutrum orci auctor. Aenean feugiat volutpat magna ut venenatis. Proin eu ornare metus, in pretium sem. Aenean id bibendum urna. Sed ultricies mauris in erat bibendum rhoncus. Suspendisse ac porttitor tellus. Sed molestie pharetra turpis, pellentesque ultrices tortor sodales sit amet. Integer et nulla luctus, fermentum felis eget, consequat est. Curabitur sed blandit nunc. Etiam cursus neque id diam consequat pharetra. Orci varius natoque penatibus et magnis dis parturient montes, nascetur ridiculus mus.
Nulla vitae lectus ut ipsum lobortis porttitor id eu purus. In finibus erat vitae orci volutpat, in euismod lorem dignissim. Vivamus volutpat orci sit amet velit pulvinar, id elementum lacus placerat. Donec scelerisque ligula at risus auctor venenatis ac et nibh. Donec eget cursus ipsum. Etiam interdum, velit vitae pulvinar egestas, quam risus interdum nisi, ut porta odio magna at diam. Cras dignissim tempor urna id condimentum. Cras molestie sagittis venenatis. Aenean at rutrum tellus, sit amet mollis elit.
Praesent dictum lacinia enim sit amet scelerisque. Proin cursus enim luctus mi fringilla rhoncus. Praesent sagittis, erat vel auctor pretium, elit leo vulputate quam, a tincidunt ante justo sit amet eros. Duis condimentum, dui sed finibus convallis, ipsum neque dictum mauris, quis pulvinar mauris mi feugiat enim. Proin ullamcorper nibh lorem, nec consequat erat rhoncus ut. Praesent nisi ligula, molestie in nulla a, interdum sagittis neque. Nulla viverra elit ac eros mattis ultricies. Pellentesque a iaculis tellus.
Lorem ipsum dolor sit amet, consectetur adipiscing elit. Phasellus commodo nibh nulla, sit amet interdum ex condimentum ac. Mauris sodales placerat mollis. Suspendisse non quam pretium, ultricies nisl in, vehicula neque. Vestibulum ante ipsum primis in faucibus orci luctus et ultrices posuere cubilia curae; Ut condimentum vel orci efficitur viverra. Praesent posuere molestie lacus at consectetur. Vivamus pharetra, eros vel porta pretium, urna sem sodales nisi, ac tristique massa nisl nec sem. Donec at massa non felis ullamcorper eleifend. Morbi sit amet pharetra orci. Vivamus laoreet viverra tempor.
This journal note is written by Hans Hansen on the 20th of November 2022 after a hospitalisation.
Proin aliquet sit amet justo quis auctor. Integer malesuada tempor purus sit amet dictum. Nulla dictum pharetra erat sit amet faucibus. Fusce porttitor, lectus sed volutpat pulvinar, tortor leo sodales elit, non mattis ligula enim dignissim ex. Donec ornare laoreet elit dapibus maximus. Mauris malesuada enim vitae ligula feugiat, eget rutrum orci auctor. Aenean feugiat volutpat magna ut venenatis. Proin eu ornare metus, in pretium sem. Aenean id bibendum urna. Sed ultricies mauris in erat bibendum rhoncus. Suspendisse ac porttitor tellus. Sed molestie pharetra turpis, pellentesque ultrices tortor sodales sit amet. Integer et nulla luctus, fermentum felis eget, consequat est. Curabitur sed blandit nunc. Etiam cursus neque id diam consequat pharetra. Orci varius natoque penatibus et magnis dis parturient montes, nascetur ridiculus mus.
Nulla vitae lectus ut ipsum lobortis porttitor id eu purus. In finibus erat vitae orci volutpat, in euismod lorem dignissim. Vivamus volutpat orci sit amet velit pulvinar, id elementum lacus placerat. Donec scelerisque ligula at risus auctor venenatis ac et nibh. Donec eget cursus ipsum. Etiam interdum, velit vitae pulvinar egestas, quam risus interdum nisi, ut porta odio magna at diam. Cras dignissim tempor urna id condimentum. Cras molestie sagittis venenatis. Aenean at rutrum tellus, sit amet mollis elit.
Praesent dictum lacinia enim sit amet scelerisque. Proin cursus enim luctus mi fringilla rhoncus. Praesent sagittis, erat vel auctor pretium, elit leo vulputate quam, a tincidunt ante justo sit amet eros. Duis condimentum, dui sed finibus convallis, ipsum neque dictum mauris, quis pulvinar mauris mi feugiat enim. Proin ullamcorper nibh lorem, nec consequat erat rhoncus ut. Praesent nisi ligula, molestie in nulla a, interdum sagittis neque. Nulla viverra elit ac eros mattis ultricies. Pellentesque a iaculis tellus.
Lorem ipsum dolor sit amet, consectetur adipiscing elit. Phasellus commodo nibh nulla, sit amet interdum ex condimentum ac. Mauris sodales placerat mollis. Suspendisse non quam pretium, ultricies nisl in, vehicula neque. Vestibulum ante ipsum primis in faucibus orci luctus et ultrices posuere cubilia curae; Ut condimentum vel orci efficitur viverra. Praesent posuere molestie lacus at consectetur. Vivamus pharetra, eros vel porta pretium, urna sem sodales nisi, ac tristique massa nisl nec sem. Donec at massa non felis ullamcorper eleifend. Morbi sit amet pharetra orci. Vivamus laoreet viverra tempor.
This journal note is written by Hans Hansen on the 20th of November 2022 after a hospitalisation.
Proin aliquet sit amet justo quis auctor. Integer malesuada tempor purus sit amet dictum. Nulla dictum pharetra erat sit amet faucibus. Fusce porttitor, lectus sed volutpat pulvinar, tortor leo sodales elit, non mattis ligula enim dignissim ex. Donec ornare laoreet elit dapibus maximus. Mauris malesuada enim vitae ligula feugiat, eget rutrum orci auctor. Aenean feugiat volutpat magna ut venenatis. Proin eu ornare metus, in pretium sem. Aenean id bibendum urna. Sed ultricies mauris in erat bibendum rhoncus. Suspendisse ac porttitor tellus. Sed molestie pharetra turpis, pellentesque ultrices tortor sodales sit amet. Integer et nulla luctus, fermentum felis eget, consequat est. Curabitur sed blandit nunc. Etiam cursus neque id diam consequat pharetra. Orci varius natoque penatibus et magnis dis parturient montes, nascetur ridiculus mus.
Nulla vitae lectus ut ipsum lobortis porttitor id eu purus. In finibus erat vitae orci volutpat, in euismod lorem dignissim. Vivamus volutpat orci sit amet velit pulvinar, id elementum lacus placerat. Donec scelerisque ligula at risus auctor venenatis ac et nibh. Donec eget cursus ipsum. Etiam interdum, velit vitae pulvinar egestas, quam risus interdum nisi, ut porta odio magna at diam. Cras dignissim tempor urna id condimentum. Cras molestie sagittis venenatis. Aenean at rutrum tellus, sit amet mollis elit.
Praesent dictum lacinia enim sit amet scelerisque. Proin cursus enim luctus mi fringilla rhoncus. Praesent sagittis, erat vel auctor pretium, elit leo vulputate quam, a tincidunt ante justo sit amet eros. Duis condimentum, dui sed finibus convallis, ipsum neque dictum mauris, quis pulvinar mauris mi feugiat enim. Proin ullamcorper nibh lorem, nec consequat erat rhoncus ut. Praesent nisi ligula, molestie in nulla a, interdum sagittis neque. Nulla viverra elit ac eros mattis ultricies. Pellentesque a iaculis tellus.
Lorem ipsum dolor sit amet, consectetur adipiscing elit. Phasellus commodo nibh nulla, sit amet interdum ex condimentum ac. Mauris sodales placerat mollis. Suspendisse non quam pretium, ultricies nisl in, vehicula neque. Vestibulum ante ipsum primis in faucibus orci luctus et ultrices posuere cubilia curae; Ut condimentum vel orci efficitur viverra. Praesent posuere molestie lacus at consectetur. Vivamus pharetra, eros vel porta pretium, urna sem sodales nisi, ac tristique massa nisl nec sem. Donec at massa non felis ullamcorper eleifend. Morbi sit amet pharetra orci. Vivamus laoreet viverra tempor.
This journal note is written by Hans Hansen on the 20th of November 2022 after a hospitalisation.
Proin aliquet sit amet justo quis auctor. Integer malesuada tempor purus sit amet dictum. Nulla dictum pharetra erat sit amet faucibus. Fusce porttitor, lectus sed volutpat pulvinar, tortor leo sodales elit, non mattis ligula enim dignissim ex. Donec ornare laoreet elit dapibus maximus. Mauris malesuada enim vitae ligula feugiat, eget rutrum orci auctor. Aenean feugiat volutpat magna ut venenatis. Proin eu ornare metus, in pretium sem. Aenean id bibendum urna. Sed ultricies mauris in erat bibendum rhoncus. Suspendisse ac porttitor tellus. Sed molestie pharetra turpis, pellentesque ultrices tortor sodales sit amet. Integer et nulla luctus, fermentum felis eget, consequat est. Curabitur sed blandit nunc. Etiam cursus neque id diam consequat pharetra. Orci varius natoque penatibus et magnis dis parturient montes, nascetur ridiculus mus.
Nulla vitae lectus ut ipsum lobortis porttitor id eu purus. In finibus erat vitae orci volutpat, in euismod lorem dignissim. Vivamus volutpat orci sit amet velit pulvinar, id elementum lacus placerat. Donec scelerisque ligula at risus auctor venenatis ac et nibh. Donec eget cursus ipsum. Etiam interdum, velit vitae pulvinar egestas, quam risus interdum nisi, ut porta odio magna at diam. Cras dignissim tempor urna id condimentum. Cras molestie sagittis venenatis. Aenean at rutrum tellus, sit amet mollis elit.
Praesent dictum lacinia enim sit amet scelerisque. Proin cursus enim luctus mi fringilla rhoncus. Praesent sagittis, erat vel auctor pretium, elit leo vulputate quam, a tincidunt ante justo sit amet eros. Duis condimentum, dui sed finibus convallis, ipsum neque dictum mauris, quis pulvinar mauris mi feugiat enim. Proin ullamcorper nibh lorem, nec consequat erat rhoncus ut. Praesent nisi ligula, molestie in nulla a, interdum sagittis neque. Nulla viverra elit ac eros mattis ultricies. Pellentesque a iaculis tellus.
Lorem ipsum dolor sit amet, consectetur adipiscing elit. Phasellus commodo nibh nulla, sit amet interdum ex condimentum ac. Mauris sodales placerat mollis. Suspendisse non quam pretium, ultricies nisl in, vehicula neque. Vestibulum ante ipsum primis in faucibus orci luctus et ultrices posuere cubilia curae; Ut condimentum vel orci efficitur viverra. Praesent posuere molestie lacus at consectetur. Vivamus pharetra, eros vel porta pretium, urna sem sodales nisi, ac tristique massa nisl nec sem. Donec at massa non felis ullamcorper eleifend. Morbi sit amet pharetra orci. Vivamus laoreet viverra tempor.
This journal note is written by Hans Hansen on the 20th of November 2022 after a hospitalisation.
Hilsen Michael Burns
Sygeplejerske</p></blockquote></div>
        </text>
        <extension url="http://medcomfhir.dk/ig/core/StructureDefinition/medcom-core-sender-extension">
          <valueReference>
            <reference value="CareTeam/48aa320d-dd35-40b8-a6c0-82312652b720"/>
          </valueReference>
        </extension>
        <identifier>
          <value value="urn:uuid:b2eb3d0e-5de5-4de9-b2a3-0ff321ad1c3a"/>
        </identifier>
        <status value="unknown"/>
        <category>
          <coding>
            <system value="http://medcomfhir.dk/ig/terminology/CodeSystem/medcom-careCommunication-categoryCodes"/>
            <code value="acute-ambulant"/>
          </coding>
        </category>
        <subject>
          <reference value="Patient/9fcf448a-4628-45e1-9098-0dd8de0e7e76"/>
        </subject>
        <topic>
          <text value="Kritisk tilstand"/>
        </topic>
        <recipient>
          <reference value="PractitionerRole/2d808d61-69ec-4040-b6f8-2be94926f86e"/>
        </recipient>
        <payload>
          <extension url="http://medcomfhir.dk/ig/core/StructureDefinition/medcom-core-datetime-extension">
            <valueDateTime value="2024-09-05T14:00:00+02:00"/>
          </extension>
          <extension url="http://medcomfhir.dk/ig/core/StructureDefinition/medcom-core-identifier-extension">
            <valueIdentifier>
              <value value="urn:uuid:c87eb7b4-4680-499f-b6dd-49b0581ca5c6"/>
              <assigner>
                <reference value="Organization/09844b02-9647-49e1-92ae-37dc5c721888"/>
              </assigner>
            </valueIdentifier>
          </extension>
          <extension url="http://medcomfhir.dk/ig/core/StructureDefinition/medcom-core-practitioner-extension">
            <valueReference>
              <reference value="PractitionerRole/2b9a1598-4147-472c-9f8a-712bb7479c57"/>
            </valueReference>
          </extension>
          <extension url="http://medcomfhir.dk/ig/core/StructureDefinition/medcom-core-contact-extension">
            <valueContactPoint>
              <system value="phone"/>
              <value value="38683868"/>
            </valueContactPoint>
          </extension>
          <contentString value="Til rette vedkommende på Arden Lægehus. Vedr. henvisningen af Elmer fra udskrivelse ønsker, vi at gøre jer opmærksomme på hans kritiske tilstand, som beskrevet i henvisningen. It contains the information you requested over the phone:&#xA;Proin aliquet sit amet justo quis auctor. Integer malesuada tempor purus sit amet dictum. Nulla dictum pharetra erat sit amet faucibus. Fusce porttitor, lectus sed volutpat pulvinar, tortor leo sodales elit, non mattis ligula enim dignissim ex. Donec ornare laoreet elit dapibus maximus. Mauris malesuada enim vitae ligula feugiat, eget rutrum orci auctor. Aenean feugiat volutpat magna ut venenatis. Proin eu ornare metus, in pretium sem. Aenean id bibendum urna. Sed ultricies mauris in erat bibendum rhoncus. Suspendisse ac porttitor tellus. Sed molestie pharetra turpis, pellentesque ultrices tortor sodales sit amet. Integer et nulla luctus, fermentum felis eget, consequat est. Curabitur sed blandit nunc. Etiam cursus neque id diam consequat pharetra. Orci varius natoque penatibus et magnis dis parturient montes, nascetur ridiculus mus.&#xA;Nulla vitae lectus ut ipsum lobortis porttitor id eu purus. In finibus erat vitae orci volutpat, in euismod lorem dignissim. Vivamus volutpat orci sit amet velit pulvinar, id elementum lacus placerat. Donec scelerisque ligula at risus auctor venenatis ac et nibh. Donec eget cursus ipsum. Etiam interdum, velit vitae pulvinar egestas, quam risus interdum nisi, ut porta odio magna at diam. Cras dignissim tempor urna id condimentum. Cras molestie sagittis venenatis. Aenean at rutrum tellus, sit amet mollis elit.&#xA;Praesent dictum lacinia enim sit amet scelerisque. Proin cursus enim luctus mi fringilla rhoncus. Praesent sagittis, erat vel auctor pretium, elit leo vulputate quam, a tincidunt ante justo sit amet eros. Duis condimentum, dui sed finibus convallis, ipsum neque dictum mauris, quis pulvinar mauris mi feugiat enim. Proin ullamcorper nibh lorem, nec consequat erat rhoncus ut. Praesent nisi ligula, molestie in nulla a, interdum sagittis neque. Nulla viverra elit ac eros mattis ultricies. Pellentesque a iaculis tellus.&#xA;Lorem ipsum dolor sit amet, consectetur adipiscing elit. Phasellus commodo nibh nulla, sit amet interdum ex condimentum ac. Mauris sodales placerat mollis. Suspendisse non quam pretium, ultricies nisl in, vehicula neque. Vestibulum ante ipsum primis in faucibus orci luctus et ultrices posuere cubilia curae; Ut condimentum vel orci efficitur viverra. Praesent posuere molestie lacus at consectetur. Vivamus pharetra, eros vel porta pretium, urna sem sodales nisi, ac tristique massa nisl nec sem. Donec at massa non felis ullamcorper eleifend. Morbi sit amet pharetra orci. Vivamus laoreet viverra tempor.&#xA;This journal note is written by Hans Hansen on the 20th of November 2022 after a hospitalisation.&#xA;Proin aliquet sit amet justo quis auctor. Integer malesuada tempor purus sit amet dictum. Nulla dictum pharetra erat sit amet faucibus. Fusce porttitor, lectus sed volutpat pulvinar, tortor leo sodales elit, non mattis ligula enim dignissim ex. Donec ornare laoreet elit dapibus maximus. Mauris malesuada enim vitae ligula feugiat, eget rutrum orci auctor. Aenean feugiat volutpat magna ut venenatis. Proin eu ornare metus, in pretium sem. Aenean id bibendum urna. Sed ultricies mauris in erat bibendum rhoncus. Suspendisse ac porttitor tellus. Sed molestie pharetra turpis, pellentesque ultrices tortor sodales sit amet. Integer et nulla luctus, fermentum felis eget, consequat est. Curabitur sed blandit nunc. Etiam cursus neque id diam consequat pharetra. Orci varius natoque penatibus et magnis dis parturient montes, nascetur ridiculus mus.&#xA;Nulla vitae lectus ut ipsum lobortis porttitor id eu purus. In finibus erat vitae orci volutpat, in euismod lorem dignissim. Vivamus volutpat orci sit amet velit pulvinar, id elementum lacus placerat. Donec scelerisque ligula at risus auctor venenatis ac et nibh. Donec eget cursus ipsum. Etiam interdum, velit vitae pulvinar egestas, quam risus interdum nisi, ut porta odio magna at diam. Cras dignissim tempor urna id condimentum. Cras molestie sagittis venenatis. Aenean at rutrum tellus, sit amet mollis elit.&#xA;Praesent dictum lacinia enim sit amet scelerisque. Proin cursus enim luctus mi fringilla rhoncus. Praesent sagittis, erat vel auctor pretium, elit leo vulputate quam, a tincidunt ante justo sit amet eros. Duis condimentum, dui sed finibus convallis, ipsum neque dictum mauris, quis pulvinar mauris mi feugiat enim. Proin ullamcorper nibh lorem, nec consequat erat rhoncus ut. Praesent nisi ligula, molestie in nulla a, interdum sagittis neque. Nulla viverra elit ac eros mattis ultricies. Pellentesque a iaculis tellus.&#xA;Lorem ipsum dolor sit amet, consectetur adipiscing elit. Phasellus commodo nibh nulla, sit amet interdum ex condimentum ac. Mauris sodales placerat mollis. Suspendisse non quam pretium, ultricies nisl in, vehicula neque. Vestibulum ante ipsum primis in faucibus orci luctus et ultrices posuere cubilia curae; Ut condimentum vel orci efficitur viverra. Praesent posuere molestie lacus at consectetur. Vivamus pharetra, eros vel porta pretium, urna sem sodales nisi, ac tristique massa nisl nec sem. Donec at massa non felis ullamcorper eleifend. Morbi sit amet pharetra orci. Vivamus laoreet viverra tempor.&#xA;This journal note is written by Hans Hansen on the 20th of November 2022 after a hospitalisation.&#xA;Proin aliquet sit amet justo quis auctor. Integer malesuada tempor purus sit amet dictum. Nulla dictum pharetra erat sit amet faucibus. Fusce porttitor, lectus sed volutpat pulvinar, tortor leo sodales elit, non mattis ligula enim dignissim ex. Donec ornare laoreet elit dapibus maximus. Mauris malesuada enim vitae ligula feugiat, eget rutrum orci auctor. Aenean feugiat volutpat magna ut venenatis. Proin eu ornare metus, in pretium sem. Aenean id bibendum urna. Sed ultricies mauris in erat bibendum rhoncus. Suspendisse ac porttitor tellus. Sed molestie pharetra turpis, pellentesque ultrices tortor sodales sit amet. Integer et nulla luctus, fermentum felis eget, consequat est. Curabitur sed blandit nunc. Etiam cursus neque id diam consequat pharetra. Orci varius natoque penatibus et magnis dis parturient montes, nascetur ridiculus mus.&#xA;Nulla vitae lectus ut ipsum lobortis porttitor id eu purus. In finibus erat vitae orci volutpat, in euismod lorem dignissim. Vivamus volutpat orci sit amet velit pulvinar, id elementum lacus placerat. Donec scelerisque ligula at risus auctor venenatis ac et nibh. Donec eget cursus ipsum. Etiam interdum, velit vitae pulvinar egestas, quam risus interdum nisi, ut porta odio magna at diam. Cras dignissim tempor urna id condimentum. Cras molestie sagittis venenatis. Aenean at rutrum tellus, sit amet mollis elit.&#xA;Praesent dictum lacinia enim sit amet scelerisque. Proin cursus enim luctus mi fringilla rhoncus. Praesent sagittis, erat vel auctor pretium, elit leo vulputate quam, a tincidunt ante justo sit amet eros. Duis condimentum, dui sed finibus convallis, ipsum neque dictum mauris, quis pulvinar mauris mi feugiat enim. Proin ullamcorper nibh lorem, nec consequat erat rhoncus ut. Praesent nisi ligula, molestie in nulla a, interdum sagittis neque. Nulla viverra elit ac eros mattis ultricies. Pellentesque a iaculis tellus.&#xA;Lorem ipsum dolor sit amet, consectetur adipiscing elit. Phasellus commodo nibh nulla, sit amet interdum ex condimentum ac. Mauris sodales placerat mollis. Suspendisse non quam pretium, ultricies nisl in, vehicula neque. Vestibulum ante ipsum primis in faucibus orci luctus et ultrices posuere cubilia curae; Ut condimentum vel orci efficitur viverra. Praesent posuere molestie lacus at consectetur. Vivamus pharetra, eros vel porta pretium, urna sem sodales nisi, ac tristique massa nisl nec sem. Donec at massa non felis ullamcorper eleifend. Morbi sit amet pharetra orci. Vivamus laoreet viverra tempor.&#xA;This journal note is written by Hans Hansen on the 20th of November 2022 after a hospitalisation.&#xA;Proin aliquet sit amet justo quis auctor. Integer malesuada tempor purus sit amet dictum. Nulla dictum pharetra erat sit amet faucibus. Fusce porttitor, lectus sed volutpat pulvinar, tortor leo sodales elit, non mattis ligula enim dignissim ex. Donec ornare laoreet elit dapibus maximus. Mauris malesuada enim vitae ligula feugiat, eget rutrum orci auctor. Aenean feugiat volutpat magna ut venenatis. Proin eu ornare metus, in pretium sem. Aenean id bibendum urna. Sed ultricies mauris in erat bibendum rhoncus. Suspendisse ac porttitor tellus. Sed molestie pharetra turpis, pellentesque ultrices tortor sodales sit amet. Integer et nulla luctus, fermentum felis eget, consequat est. Curabitur sed blandit nunc. Etiam cursus neque id diam consequat pharetra. Orci varius natoque penatibus et magnis dis parturient montes, nascetur ridiculus mus.&#xA;Nulla vitae lectus ut ipsum lobortis porttitor id eu purus. In finibus erat vitae orci volutpat, in euismod lorem dignissim. Vivamus volutpat orci sit amet velit pulvinar, id elementum lacus placerat. Donec scelerisque ligula at risus auctor venenatis ac et nibh. Donec eget cursus ipsum. Etiam interdum, velit vitae pulvinar egestas, quam risus interdum nisi, ut porta odio magna at diam. Cras dignissim tempor urna id condimentum. Cras molestie sagittis venenatis. Aenean at rutrum tellus, sit amet mollis elit.&#xA;Praesent dictum lacinia enim sit amet scelerisque. Proin cursus enim luctus mi fringilla rhoncus. Praesent sagittis, erat vel auctor pretium, elit leo vulputate quam, a tincidunt ante justo sit amet eros. Duis condimentum, dui sed finibus convallis, ipsum neque dictum mauris, quis pulvinar mauris mi feugiat enim. Proin ullamcorper nibh lorem, nec consequat erat rhoncus ut. Praesent nisi ligula, molestie in nulla a, interdum sagittis neque. Nulla viverra elit ac eros mattis ultricies. Pellentesque a iaculis tellus.&#xA;Lorem ipsum dolor sit amet, consectetur adipiscing elit. Phasellus commodo nibh nulla, sit amet interdum ex condimentum ac. Mauris sodales placerat mollis. Suspendisse non quam pretium, ultricies nisl in, vehicula neque. Vestibulum ante ipsum primis in faucibus orci luctus et ultrices posuere cubilia curae; Ut condimentum vel orci efficitur viverra. Praesent posuere molestie lacus at consectetur. Vivamus pharetra, eros vel porta pretium, urna sem sodales nisi, ac tristique massa nisl nec sem. Donec at massa non felis ullamcorper eleifend. Morbi sit amet pharetra orci. Vivamus laoreet viverra tempor.&#xA;This journal note is written by Hans Hansen on the 20th of November 2022 after a hospitalisation.&#xA;Hilsen Michael Burns&#xA;Sygeplejerske"/>
        </payload>
      </Communication>
    </resource>
  </entry>
  <entry>
    <fullUrl value="https://medcomfhir.dk/ig/carecommunication/PractitionerRole/2b9a1598-4147-472c-9f8a-712bb7479c57"/>
    <resource>
      <PractitionerRole>
        <id value="2b9a1598-4147-472c-9f8a-712bb7479c57"/>
        <meta>
          <profile value="http://medcomfhir.dk/ig/core/StructureDefinition/medcom-core-practitionerrole"/>
        </meta>
        <text>
          <status value="generated"/><div xmlns="http://www.w3.org/1999/xhtml"><a name="PractitionerRole_2b9a1598-4147-472c-9f8a-712bb7479c57"> </a><p class="res-header-id"><b>Generated Narrative: PractitionerRole 2b9a1598-4147-472c-9f8a-712bb7479c57</b></p><a name="2b9a1598-4147-472c-9f8a-712bb7479c57"> </a><a name="hc2b9a1598-4147-472c-9f8a-712bb7479c57"> </a><div style="display: inline-block; background-color: #d9e0e7; padding: 6px; margin: 4px; border: 1px solid #8da1b4; border-radius: 5px; line-height: 60%"><p style="margin-bottom: 0px"/><p style="margin-bottom: 0px">Profile: <a href="http://medcomfhir.dk/ig/core/3.0.0/StructureDefinition-medcom-core-practitionerrole.html">MedComCorePractitionerRole</a></p></div><p><b>practitioner</b>: <a href="Practitioner-b19a6a37-ec37-4dbb-95ca-1e0c92378c7e.html">Practitioner Michael Burns </a></p><p><b>code</b>: <span title="Codes:{http://medcomfhir.dk/ig/terminology/CodeSystem/medcom-core-PractitionerRolesSKSadministrativ socialogsundhedsmedhjaelper}">Social- og sundhedsmedhjælper</span></p></div>
        </text>
        <practitioner>
          <reference value="Practitioner/b19a6a37-ec37-4dbb-95ca-1e0c92378c7e"/>
        </practitioner>
        <code>
          <coding>
            <system value="http://medcomfhir.dk/ig/terminology/CodeSystem/medcom-core-PractitionerRolesSKSadministrativ"/>
            <code value="socialogsundhedsmedhjaelper"/>
          </coding>
        </code>
      </PractitionerRole>
    </resource>
  </entry>
  <entry>
    <fullUrl value="https://medcomfhir.dk/ig/carecommunication/Practitioner/b19a6a37-ec37-4dbb-95ca-1e0c92378c7e"/>
    <resource>
      <Practitioner>
        <id value="b19a6a37-ec37-4dbb-95ca-1e0c92378c7e"/>
        <meta>
          <profile value="http://medcomfhir.dk/ig/core/StructureDefinition/medcom-core-practitioner"/>
        </meta>
        <text>
          <status value="generated"/><div xmlns="http://www.w3.org/1999/xhtml"><a name="Practitioner_b19a6a37-ec37-4dbb-95ca-1e0c92378c7e"> </a><p class="res-header-id"><b>Generated Narrative: Practitioner b19a6a37-ec37-4dbb-95ca-1e0c92378c7e</b></p><a name="b19a6a37-ec37-4dbb-95ca-1e0c92378c7e"> </a><a name="hcb19a6a37-ec37-4dbb-95ca-1e0c92378c7e"> </a><div style="display: inline-block; background-color: #d9e0e7; padding: 6px; margin: 4px; border: 1px solid #8da1b4; border-radius: 5px; line-height: 60%"><p style="margin-bottom: 0px"/><p style="margin-bottom: 0px">Profile: <a href="http://medcomfhir.dk/ig/core/3.0.0/StructureDefinition-medcom-core-practitioner.html">MedComCorePractitioner</a></p></div><p><b>name</b>: Michael Burns </p></div>
        </text>
        <name>
          <family value="Burns"/>
          <given value="Michael"/>
        </name>
      </Practitioner>
    </resource>
  </entry>
  <entry>
    <fullUrl value="https://medcomfhir.dk/ig/carecommunication/PractitionerRole/2d808d61-69ec-4040-b6f8-2be94926f86e"/>
    <resource>
      <PractitionerRole>
        <id value="2d808d61-69ec-4040-b6f8-2be94926f86e"/>
        <meta>
          <profile value="http://medcomfhir.dk/ig/core/StructureDefinition/medcom-core-practitionerrole"/>
        </meta>
        <text>
          <status value="generated"/><div xmlns="http://www.w3.org/1999/xhtml"><a name="PractitionerRole_2d808d61-69ec-4040-b6f8-2be94926f86e"> </a><p class="res-header-id"><b>Generated Narrative: PractitionerRole 2d808d61-69ec-4040-b6f8-2be94926f86e</b></p><a name="2d808d61-69ec-4040-b6f8-2be94926f86e"> </a><a name="hc2d808d61-69ec-4040-b6f8-2be94926f86e"> </a><div style="display: inline-block; background-color: #d9e0e7; padding: 6px; margin: 4px; border: 1px solid #8da1b4; border-radius: 5px; line-height: 60%"><p style="margin-bottom: 0px"/><p style="margin-bottom: 0px">Profile: <a href="http://medcomfhir.dk/ig/core/3.0.0/StructureDefinition-medcom-core-practitionerrole.html">MedComCorePractitionerRole</a></p></div><p><b>practitioner</b>: <a href="Practitioner-c2984887-1df7-4e43-8621-22bd6bac37c8.html">Practitioner Birgit Berggren </a></p><p><b>organization</b>: <a href="Organization-26bfb2de-a811-4744-9883-9a50c59e710d.html">Organization Sundhedsplejen, Aabenraa kommune</a></p><p><b>code</b>: <span title="Codes:">Visitator</span></p></div>
        </text>
        <practitioner>
          <reference value="Practitioner/c2984887-1df7-4e43-8621-22bd6bac37c8"/>
        </practitioner>
        <organization>
          <reference value="Organization/26bfb2de-a811-4744-9883-9a50c59e710d"/>
        </organization>
        <code>
          <text value="Visitator"/>
        </code>
      </PractitionerRole>
    </resource>
  </entry>
  <entry>
    <fullUrl value="https://medcomfhir.dk/ig/carecommunication/Practitioner/c2984887-1df7-4e43-8621-22bd6bac37c8"/>
    <resource>
      <Practitioner>
        <id value="c2984887-1df7-4e43-8621-22bd6bac37c8"/>
        <meta>
          <profile value="http://medcomfhir.dk/ig/core/StructureDefinition/medcom-core-practitioner"/>
        </meta>
        <text>
          <status value="generated"/><div xmlns="http://www.w3.org/1999/xhtml"><a name="Practitioner_c2984887-1df7-4e43-8621-22bd6bac37c8"> </a><p class="res-header-id"><b>Generated Narrative: Practitioner c2984887-1df7-4e43-8621-22bd6bac37c8</b></p><a name="c2984887-1df7-4e43-8621-22bd6bac37c8"> </a><a name="hcc2984887-1df7-4e43-8621-22bd6bac37c8"> </a><div style="display: inline-block; background-color: #d9e0e7; padding: 6px; margin: 4px; border: 1px solid #8da1b4; border-radius: 5px; line-height: 60%"><p style="margin-bottom: 0px"/><p style="margin-bottom: 0px">Profile: <a href="http://medcomfhir.dk/ig/core/3.0.0/StructureDefinition-medcom-core-practitioner.html">MedComCorePractitioner</a></p></div><p><b>name</b>: Birgit Berggren </p></div>
        </text>
        <name>
          <family value="Berggren"/>
          <given value="Birgit"/>
        </name>
      </Practitioner>
    </resource>
  </entry>
  <entry>
    <fullUrl value="https://medcomfhir.dk/ig/carecommunication/CareTeam/48aa320d-dd35-40b8-a6c0-82312652b720"/>
    <resource>
      <CareTeam>
        <id value="48aa320d-dd35-40b8-a6c0-82312652b720"/>
        <meta>
          <profile value="http://medcomfhir.dk/ig/core/StructureDefinition/medcom-core-careteam"/>
        </meta>
        <text>
          <status value="generated"/><div xmlns="http://www.w3.org/1999/xhtml"><a name="CareTeam_48aa320d-dd35-40b8-a6c0-82312652b720"> </a><p class="res-header-id"><b>Generated Narrative: CareTeam 48aa320d-dd35-40b8-a6c0-82312652b720</b></p><a name="48aa320d-dd35-40b8-a6c0-82312652b720"> </a><a name="hc48aa320d-dd35-40b8-a6c0-82312652b720"> </a><div style="display: inline-block; background-color: #d9e0e7; padding: 6px; margin: 4px; border: 1px solid #8da1b4; border-radius: 5px; line-height: 60%"><p style="margin-bottom: 0px"/><p style="margin-bottom: 0px">Profile: <a href="http://medcomfhir.dk/ig/core/3.0.0/StructureDefinition-medcom-core-careteam.html">MedComCoreCareTeam</a></p></div><p><b>name</b>: Team +80 år</p><p><b>managingOrganization</b>: <a href="Organization-09844b02-9647-49e1-92ae-37dc5c721888.html">Organization Klinik for Ældresygdomme, AUH, Skejby</a></p></div>
        </text>
        <name value="Team +80 år"/>
        <managingOrganization>
          <reference value="Organization/09844b02-9647-49e1-92ae-37dc5c721888"/>
        </managingOrganization>
      </CareTeam>
    </resource>
  </entry>
  <entry>
    <fullUrl value="https://medcomfhir.dk/ig/carecommunication/Organization/09844b02-9647-49e1-92ae-37dc5c721888"/>
    <resource>
      <Organization>
        <id value="09844b02-9647-49e1-92ae-37dc5c721888"/>
        <meta>
          <profile value="http://medcomfhir.dk/ig/messaging/StructureDefinition/medcom-messaging-organization"/>
        </meta>
        <text>
          <status value="generated"/><div xmlns="http://www.w3.org/1999/xhtml"><a name="Organization_09844b02-9647-49e1-92ae-37dc5c721888"> </a><p class="res-header-id"><b>Generated Narrative: Organization 09844b02-9647-49e1-92ae-37dc5c721888</b></p><a name="09844b02-9647-49e1-92ae-37dc5c721888"> </a><a name="hc09844b02-9647-49e1-92ae-37dc5c721888"> </a><div style="display: inline-block; background-color: #d9e0e7; padding: 6px; margin: 4px; border: 1px solid #8da1b4; border-radius: 5px; line-height: 60%"><p style="margin-bottom: 0px"/><p style="margin-bottom: 0px">Profile: <a href="http://medcomfhir.dk/ig/messaging/4.0.0/StructureDefinition-medcom-messaging-organization.html">MedComMessagingOrganization</a></p></div><p><b>identifier</b>: <code>https://www.gs1.org/gln</code>/5790001987244, <code>urn:oid:1.2.208.176.1.1</code>/441211000016000</p><p><b>name</b>: Klinik for Ældresygdomme, AUH, Skejby</p></div>
        </text>
        <identifier>
          <system value="https://www.gs1.org/gln"/>
          <value value="5790001987244"/>
        </identifier>
        <identifier>
          <system value="urn:oid:1.2.208.176.1.1"/>
          <value value="441211000016000"/>
        </identifier>
        <name value="Klinik for Ældresygdomme, AUH, Skejby"/>
      </Organization>
    </resource>
  </entry>
  <entry>
    <fullUrl value="https://medcomfhir.dk/ig/carecommunication/Organization/26bfb2de-a811-4744-9883-9a50c59e710d"/>
    <resource>
      <Organization>
        <id value="26bfb2de-a811-4744-9883-9a50c59e710d"/>
        <meta>
          <profile value="http://medcomfhir.dk/ig/messaging/StructureDefinition/medcom-messaging-organization"/>
        </meta>
        <text>
          <status value="generated"/><div xmlns="http://www.w3.org/1999/xhtml"><a name="Organization_26bfb2de-a811-4744-9883-9a50c59e710d"> </a><p class="res-header-id"><b>Generated Narrative: Organization 26bfb2de-a811-4744-9883-9a50c59e710d</b></p><a name="26bfb2de-a811-4744-9883-9a50c59e710d"> </a><a name="hc26bfb2de-a811-4744-9883-9a50c59e710d"> </a><div style="display: inline-block; background-color: #d9e0e7; padding: 6px; margin: 4px; border: 1px solid #8da1b4; border-radius: 5px; line-height: 60%"><p style="margin-bottom: 0px"/><p style="margin-bottom: 0px">Profile: <a href="http://medcomfhir.dk/ig/messaging/4.0.0/StructureDefinition-medcom-messaging-organization.html">MedComMessagingOrganization</a></p></div><p><b>identifier</b>: <code>https://www.gs1.org/gln</code>/5790001353308, <code>urn:oid:1.2.208.176.1.1</code>/330461000016004</p><p><b>name</b>: Sundhedsplejen, Aabenraa kommune</p></div>
        </text>
        <identifier>
          <system value="https://www.gs1.org/gln"/>
          <value value="5790001353308"/>
        </identifier>
        <identifier>
          <system value="urn:oid:1.2.208.176.1.1"/>
          <value value="330461000016004"/>
        </identifier>
        <name value="Sundhedsplejen, Aabenraa kommune"/>
      </Organization>
    </resource>
  </entry>
  <entry>
    <fullUrl value="https://medcomfhir.dk/ig/carecommunication/Provenance/3534b272-253d-47ce-ba7b-19ec946d95a2"/>
    <resource>
      <Provenance>
        <id value="3534b272-253d-47ce-ba7b-19ec946d95a2"/>
        <meta>
          <profile value="http://medcomfhir.dk/ig/carecommunication/StructureDefinition/medcom-careCommunication-provenance"/>
        </meta>
        <text>
          <status value="generated"/><div xmlns="http://www.w3.org/1999/xhtml"><a name="Provenance_3534b272-253d-47ce-ba7b-19ec946d95a2"> </a><p class="res-header-id"><b>Generated Narrative: Provenance 3534b272-253d-47ce-ba7b-19ec946d95a2</b></p><a name="3534b272-253d-47ce-ba7b-19ec946d95a2"> </a><a name="hc3534b272-253d-47ce-ba7b-19ec946d95a2"> </a><div style="display: inline-block; background-color: #d9e0e7; padding: 6px; margin: 4px; border: 1px solid #8da1b4; border-radius: 5px; line-height: 60%"><p style="margin-bottom: 0px"/><p style="margin-bottom: 0px">Profile: <a href="http://medcomfhir.dk/ig/carecommunication/5.0.0/StructureDefinition-medcom-careCommunication-provenance.html">MedComCareCommunicationProvenance</a></p></div><p>Provenance for <a href="MessageHeader-0ebb6284-eb20-45eb-8113-6620d2d08608.html">MessageHeader: event[x] = Care Communication Message (MedComMessagingEventCodes#care-communication-message); definition = http://medcomfhir.dk/ig/messagedefinitions/MessageDefinition/MedComCareCommunicationMessageDefinition|5.0</a></p><p>Summary</p><table class="grid"><tr><td>Occurrence</td><td>2024-09-05 14:00:00+0200</td></tr><tr><td>Recorded</td><td>2024-09-05 14:00:00+0200</td></tr><tr><td>Activity</td><td><span title="Codes:{http://medcomfhir.dk/ig/terminology/CodeSystem/medcom-messaging-activityCodes new-message}">A new message has been sent</span></td></tr></table><p><b>Agents</b></p><table class="grid"><tr><td><b>who</b></td></tr><tr><td><a href="Organization-09844b02-9647-49e1-92ae-37dc5c721888.html">Organization Klinik for Ældresygdomme, AUH, Skejby</a></td></tr></table></div>
        </text>
        <target>
          <reference value="MessageHeader/0ebb6284-eb20-45eb-8113-6620d2d08608"/>
        </target>
        <occurredDateTime value="2024-09-05T14:00:00+02:00"/>
        <recorded value="2024-09-05T14:00:00+02:00"/>
        <activity>
          <coding>
            <system value="http://medcomfhir.dk/ig/terminology/CodeSystem/medcom-messaging-activityCodes"/>
            <code value="new-message"/>
          </coding>
        </activity>
        <agent>
          <who>
            <reference value="Organization/09844b02-9647-49e1-92ae-37dc5c721888"/>
          </who>
        </agent>
        <entity>
          <role value="source"/>
          <what>
            <identifier>
              <value value="urn:uuid:c87eb7b4-4680-499f-b6dd-49b0581ca5c6"/>
            </identifier>
          </what>
        </entity>
      </Provenance>
    </resource>
  </entry>
</Bundle>