{
  "resourceType" : "Bundle",
  "id" : "S-Tek-A-new-episodeOfCare-b43146a2-99ec-4b05-bb8f-5b44af4fe424",
  "meta" : {
    "profile" : ["http://medcomfhir.dk/ig/carecommunication/StructureDefinition/medcom-careCommunication-message|5.0.1"]
  },
  "type" : "message",
  "timestamp" : "2024-09-15T15:20:00+02:00",
  "entry" : [{
    "fullUrl" : "https://medcomfhir.dk/ig/carecommunication/MessageHeader/a07d8566-961a-47e1-80b9-cc9b2d2e16cb",
    "resource" : {
      "resourceType" : "MessageHeader",
      "id" : "a07d8566-961a-47e1-80b9-cc9b2d2e16cb",
      "meta" : {
        "profile" : ["http://medcomfhir.dk/ig/carecommunication/StructureDefinition/medcom-careCommunication-messageHeader|5.0.1"]
      },
      "text" : {
        "status" : "generated",
        "div" : "<div xmlns=\"http://www.w3.org/1999/xhtml\"><a name=\"MessageHeader_a07d8566-961a-47e1-80b9-cc9b2d2e16cb\"> </a><p class=\"res-header-id\"><b>Generated Narrative: MessageHeader a07d8566-961a-47e1-80b9-cc9b2d2e16cb</b></p><a name=\"a07d8566-961a-47e1-80b9-cc9b2d2e16cb\"> </a><a name=\"hca07d8566-961a-47e1-80b9-cc9b2d2e16cb\"> </a><div style=\"display: inline-block; background-color: #d9e0e7; padding: 6px; margin: 4px; border: 1px solid #8da1b4; border-radius: 5px; line-height: 60%\"><p style=\"margin-bottom: 0px\"/><p style=\"margin-bottom: 0px\">Profile: <a href=\"http://medcomfhir.dk/ig/carecommunication/5.0.1/StructureDefinition-medcom-careCommunication-messageHeader.html\">MedComCareCommunicationMessageHeaderversion: null5.0.1)</a></p></div><p><b>event</b>: <a href=\"http://medcomfhir.dk/ig/terminology/2.0.1/CodeSystem-medcom-messaging-eventCodes.html#medcom-messaging-eventCodes-care-communication-message\">MedComMessagingEventCodes care-communication-message</a>: Care Communication Message</p><h3>Destinations</h3><table class=\"grid\"><tr><td style=\"display: none\">-</td><td><b>Extension</b></td><td><b>Endpoint</b></td><td><b>Receiver</b></td></tr><tr><td style=\"display: none\">*</td><td/><td><a href=\"https://sor2.sum.dsdn.dk/#id=1017421000016003\">https://sor2.sum.dsdn.dk/#id=1017421000016003</a></td><td><a href=\"Organization-c0347f2c-f11e-440f-99f6-a1ebf3b53e74.html\">Organization 2100 Lægehuset Østerbro</a></td></tr></table><p><b>sender</b>: <a href=\"Organization-674cb75e-4a5c-4609-b740-8b09e06b0e42.html\">Organization Pædagogisk Psykologisk Rådgivning</a></p><h3>Sources</h3><table class=\"grid\"><tr><td style=\"display: none\">-</td><td><b>Endpoint</b></td></tr><tr><td style=\"display: none\">*</td><td><a href=\"https://sor2.sum.dsdn.dk/#id=1385391000016002\">https://sor2.sum.dsdn.dk/#id=1385391000016002</a></td></tr></table><p><b>focus</b>: <a href=\"Communication-2678d1b2-0a76-4663-a216-b1a14e72aafa.html\">Communication: identifier = urn:uuid:c29f6032-28bf-4a11-af98-6f451fa77fee; status = unknown; category = Undersøgelsessvar; topic = </a></p><p><b>definition</b>: <a href=\"http://medcomfhir.dk/ig/messagedefinitions/1.0.0/MessageDefinition-MedComCareCommunicationMessageDefinitionV5.0.html\">http://medcomfhir.dk/ig/messagedefinitions/MessageDefinition/MedComCareCommunicationMessageDefinition|5.0</a></p></div>"
      },
      "eventCoding" : {
        "system" : "http://medcomfhir.dk/ig/terminology/CodeSystem/medcom-messaging-eventCodes",
        "code" : "care-communication-message"
      },
      "destination" : [{
        "extension" : [{
          "url" : "http://medcomfhir.dk/ig/messaging/StructureDefinition/medcom-messaging-destinationUseExtension",
          "valueCoding" : {
            "system" : "http://medcomfhir.dk/ig/terminology/CodeSystem/medcom-messaging-destinationUse",
            "code" : "primary"
          }
        }],
        "endpoint" : "https://sor2.sum.dsdn.dk/#id=1017421000016003",
        "receiver" : {
          "reference" : "Organization/c0347f2c-f11e-440f-99f6-a1ebf3b53e74"
        }
      }],
      "sender" : {
        "reference" : "Organization/674cb75e-4a5c-4609-b740-8b09e06b0e42"
      },
      "source" : {
        "endpoint" : "https://sor2.sum.dsdn.dk/#id=1385391000016002"
      },
      "focus" : [{
        "reference" : "Communication/2678d1b2-0a76-4663-a216-b1a14e72aafa"
      }],
      "definition" : "http://medcomfhir.dk/ig/messagedefinitions/MessageDefinition/MedComCareCommunicationMessageDefinition|5.0"
    }
  },
  {
    "fullUrl" : "https://medcomfhir.dk/ig/carecommunication/Patient/2f6d23d0-239c-44bb-9033-acab45416029",
    "resource" : {
      "resourceType" : "Patient",
      "id" : "2f6d23d0-239c-44bb-9033-acab45416029",
      "meta" : {
        "profile" : ["http://medcomfhir.dk/ig/core/StructureDefinition/medcom-core-patient|3.0.1"]
      },
      "text" : {
        "status" : "generated",
        "div" : "<div xmlns=\"http://www.w3.org/1999/xhtml\"><a name=\"Patient_2f6d23d0-239c-44bb-9033-acab45416029\"> </a><p class=\"res-header-id\"><b>Generated Narrative: Patient 2f6d23d0-239c-44bb-9033-acab45416029</b></p><a name=\"2f6d23d0-239c-44bb-9033-acab45416029\"> </a><a name=\"hc2f6d23d0-239c-44bb-9033-acab45416029\"> </a><div style=\"display: inline-block; background-color: #d9e0e7; padding: 6px; margin: 4px; border: 1px solid #8da1b4; border-radius: 5px; line-height: 60%\"><p style=\"margin-bottom: 0px\"/><p style=\"margin-bottom: 0px\">Profile: <a href=\"http://medcomfhir.dk/ig/core/3.0.1/StructureDefinition-medcom-core-patient.html\">MedComCorePatientversion: null3.0.1)</a></p></div><p style=\"border: 1px #661aff solid; background-color: #e6e6ff; padding: 10px;\">Bruno Test Elmer (official) (no stated gender), DoB Unknown ( urn:oid:1.2.208.176.1.2#2509479989)</p><hr/></div>"
      },
      "identifier" : [{
        "system" : "urn:oid:1.2.208.176.1.2",
        "value" : "2509479989"
      }],
      "name" : [{
        "use" : "official",
        "family" : "Elmer",
        "given" : ["Bruno",
        "Test"]
      }]
    }
  },
  {
    "fullUrl" : "https://medcomfhir.dk/ig/carecommunication/Communication/2678d1b2-0a76-4663-a216-b1a14e72aafa",
    "resource" : {
      "resourceType" : "Communication",
      "id" : "2678d1b2-0a76-4663-a216-b1a14e72aafa",
      "meta" : {
        "profile" : ["http://medcomfhir.dk/ig/carecommunication/StructureDefinition/medcom-careCommunication-communication|5.0.1"]
      },
      "text" : {
        "status" : "extensions",
        "div" : "<div xmlns=\"http://www.w3.org/1999/xhtml\"><a name=\"Communication_2678d1b2-0a76-4663-a216-b1a14e72aafa\"> </a><p class=\"res-header-id\"><b>Generated Narrative: Communication 2678d1b2-0a76-4663-a216-b1a14e72aafa</b></p><a name=\"2678d1b2-0a76-4663-a216-b1a14e72aafa\"> </a><a name=\"hc2678d1b2-0a76-4663-a216-b1a14e72aafa\"> </a><div style=\"display: inline-block; background-color: #d9e0e7; padding: 6px; margin: 4px; border: 1px solid #8da1b4; border-radius: 5px; line-height: 60%\"><p style=\"margin-bottom: 0px\"/><p style=\"margin-bottom: 0px\">Profile: <a href=\"http://medcomfhir.dk/ig/carecommunication/5.0.1/StructureDefinition-medcom-careCommunication-communication.html\">MedComCareCommunicationversion: null5.0.1)</a></p></div><p><b>identifier</b>: urn:uuid:c29f6032-28bf-4a11-af98-6f451fa77fee</p><p><b>status</b>: Unknown</p><p><b>category</b>: <span title=\"Codes:{http://medcomfhir.dk/ig/terminology/CodeSystem/medcom-careCommunication-categoryCodes examination-results}\">Undersøgelsessvar</span></p><p><b>subject</b>: <a href=\"Patient-2f6d23d0-239c-44bb-9033-acab45416029.html\">Bruno Test Elmer (official) (no stated gender), DoB Unknown ( urn:oid:1.2.208.176.1.2#2509479989)</a></p><p><b>topic</b>: <span title=\"Codes:\">Resultater fra hjemmesygeplejen</span></p><p><b>encounter</b>: <a href=\"Encounter-c3efbaa3-4b9e-4da1-bb4a-496d33953abd.html\">Encounter: status = finished; class = inpatient encounter (ActCode#IMP)</a></p><blockquote><p><b>payload</b></p><p><b>DateTimeExtension</b>: 2024-09-15 15:20:00+0200</p><p><b>IdentifierExtension</b>: urn:uuid:ee96d66f-f95a-4f23-855c-44befb31c52b</p><p><b>PractitionerExtension</b>: <a href=\"PractitionerRole-ab46bc08-6adb-4e35-8640-e2b9fed48fe7.html\">PractitionerRole Sygeplejerske</a></p><p><b>ContactExtension</b>: ph: 004523232323</p><p><b>content</b>: Til rette vedkommende. Hermed fremsendes undersøgelsesresultater fra seneste besøg af hjemmesygeplejen.....\nHilsen Michael Magnus Burns\nSygeplejerske</p></blockquote></div>"
      },
      "identifier" : [{
        "value" : "urn:uuid:c29f6032-28bf-4a11-af98-6f451fa77fee"
      }],
      "status" : "unknown",
      "category" : [{
        "coding" : [{
          "system" : "http://medcomfhir.dk/ig/terminology/CodeSystem/medcom-careCommunication-categoryCodes",
          "code" : "examination-results"
        }]
      }],
      "subject" : {
        "reference" : "Patient/2f6d23d0-239c-44bb-9033-acab45416029"
      },
      "topic" : {
        "text" : "Resultater fra hjemmesygeplejen"
      },
      "encounter" : {
        "reference" : "Encounter/c3efbaa3-4b9e-4da1-bb4a-496d33953abd"
      },
      "payload" : [{
        "extension" : [{
          "url" : "http://medcomfhir.dk/ig/core/StructureDefinition/medcom-core-datetime-extension",
          "valueDateTime" : "2024-09-15T15:20:00+02:00"
        },
        {
          "url" : "http://medcomfhir.dk/ig/core/StructureDefinition/medcom-core-identifier-extension",
          "valueIdentifier" : {
            "value" : "urn:uuid:ee96d66f-f95a-4f23-855c-44befb31c52b",
            "assigner" : {
              "reference" : "Organization/674cb75e-4a5c-4609-b740-8b09e06b0e42"
            }
          }
        },
        {
          "url" : "http://medcomfhir.dk/ig/core/StructureDefinition/medcom-core-practitioner-extension",
          "valueReference" : {
            "reference" : "PractitionerRole/ab46bc08-6adb-4e35-8640-e2b9fed48fe7"
          }
        },
        {
          "url" : "http://medcomfhir.dk/ig/core/StructureDefinition/medcom-core-contact-extension",
          "valueContactPoint" : {
            "system" : "phone",
            "value" : "004523232323"
          }
        }],
        "contentString" : "Til rette vedkommende. Hermed fremsendes undersøgelsesresultater fra seneste besøg af hjemmesygeplejen.....\nHilsen Michael Magnus Burns\nSygeplejerske"
      }]
    }
  },
  {
    "fullUrl" : "https://medcomfhir.dk/ig/carecommunication/PractitionerRole/ab46bc08-6adb-4e35-8640-e2b9fed48fe7",
    "resource" : {
      "resourceType" : "PractitionerRole",
      "id" : "ab46bc08-6adb-4e35-8640-e2b9fed48fe7",
      "meta" : {
        "profile" : ["http://medcomfhir.dk/ig/core/StructureDefinition/medcom-core-practitionerrole|3.0.1"]
      },
      "text" : {
        "status" : "generated",
        "div" : "<div xmlns=\"http://www.w3.org/1999/xhtml\"><a name=\"PractitionerRole_ab46bc08-6adb-4e35-8640-e2b9fed48fe7\"> </a><p class=\"res-header-id\"><b>Generated Narrative: PractitionerRole ab46bc08-6adb-4e35-8640-e2b9fed48fe7</b></p><a name=\"ab46bc08-6adb-4e35-8640-e2b9fed48fe7\"> </a><a name=\"hcab46bc08-6adb-4e35-8640-e2b9fed48fe7\"> </a><div style=\"display: inline-block; background-color: #d9e0e7; padding: 6px; margin: 4px; border: 1px solid #8da1b4; border-radius: 5px; line-height: 60%\"><p style=\"margin-bottom: 0px\"/><p style=\"margin-bottom: 0px\">Profile: <a href=\"http://medcomfhir.dk/ig/core/3.0.1/StructureDefinition-medcom-core-practitionerrole.html\">MedComCorePractitionerRoleversion: null3.0.1)</a></p></div><p><b>practitioner</b>: <a href=\"Practitioner-663501c4-0e82-4883-8b08-6fb6a20719ea.html\">Practitioner Michael Magnus Burns </a></p><p><b>code</b>: <span title=\"Codes:{http://medcomfhir.dk/ig/terminology/CodeSystem/medcom-core-PractitionerRolesSKSadministrativ sygeplejerske}\">Sygeplejerske</span></p></div>"
      },
      "practitioner" : {
        "reference" : "Practitioner/663501c4-0e82-4883-8b08-6fb6a20719ea"
      },
      "code" : [{
        "coding" : [{
          "system" : "http://medcomfhir.dk/ig/terminology/CodeSystem/medcom-core-PractitionerRolesSKSadministrativ",
          "code" : "sygeplejerske"
        }]
      }]
    }
  },
  {
    "fullUrl" : "https://medcomfhir.dk/ig/carecommunication/Practitioner/663501c4-0e82-4883-8b08-6fb6a20719ea",
    "resource" : {
      "resourceType" : "Practitioner",
      "id" : "663501c4-0e82-4883-8b08-6fb6a20719ea",
      "meta" : {
        "profile" : ["http://medcomfhir.dk/ig/core/StructureDefinition/medcom-core-practitioner|3.0.1"]
      },
      "text" : {
        "status" : "generated",
        "div" : "<div xmlns=\"http://www.w3.org/1999/xhtml\"><a name=\"Practitioner_663501c4-0e82-4883-8b08-6fb6a20719ea\"> </a><p class=\"res-header-id\"><b>Generated Narrative: Practitioner 663501c4-0e82-4883-8b08-6fb6a20719ea</b></p><a name=\"663501c4-0e82-4883-8b08-6fb6a20719ea\"> </a><a name=\"hc663501c4-0e82-4883-8b08-6fb6a20719ea\"> </a><div style=\"display: inline-block; background-color: #d9e0e7; padding: 6px; margin: 4px; border: 1px solid #8da1b4; border-radius: 5px; line-height: 60%\"><p style=\"margin-bottom: 0px\"/><p style=\"margin-bottom: 0px\">Profile: <a href=\"http://medcomfhir.dk/ig/core/3.0.1/StructureDefinition-medcom-core-practitioner.html\">MedComCorePractitionerversion: null3.0.1)</a></p></div><p><b>name</b>: Michael Magnus Burns </p></div>"
      },
      "name" : [{
        "family" : "Burns",
        "given" : ["Michael",
        "Magnus"]
      }]
    }
  },
  {
    "fullUrl" : "https://medcomfhir.dk/ig/carecommunication/Encounter/c3efbaa3-4b9e-4da1-bb4a-496d33953abd",
    "resource" : {
      "resourceType" : "Encounter",
      "id" : "c3efbaa3-4b9e-4da1-bb4a-496d33953abd",
      "meta" : {
        "profile" : ["http://medcomfhir.dk/ig/core/StructureDefinition/medcom-core-encounter|3.0.1"]
      },
      "text" : {
        "status" : "generated",
        "div" : "<div xmlns=\"http://www.w3.org/1999/xhtml\"><a name=\"Encounter_c3efbaa3-4b9e-4da1-bb4a-496d33953abd\"> </a><p class=\"res-header-id\"><b>Generated Narrative: Encounter c3efbaa3-4b9e-4da1-bb4a-496d33953abd</b></p><a name=\"c3efbaa3-4b9e-4da1-bb4a-496d33953abd\"> </a><a name=\"hcc3efbaa3-4b9e-4da1-bb4a-496d33953abd\"> </a><div style=\"display: inline-block; background-color: #d9e0e7; padding: 6px; margin: 4px; border: 1px solid #8da1b4; border-radius: 5px; line-height: 60%\"><p style=\"margin-bottom: 0px\"/><p style=\"margin-bottom: 0px\">Profile: <a href=\"http://medcomfhir.dk/ig/core/3.0.1/StructureDefinition-medcom-core-encounter.html\">MedComCoreEncounterversion: null3.0.1)</a></p></div><p><b>status</b>: Finished</p><p><b>class</b>: <a href=\"http://terminology.hl7.org/6.5.0/CodeSystem-v3-ActCode.html#v3-ActCode-IMP\">ActCode IMP</a>: inpatient encounter</p><p><b>subject</b>: <a href=\"Patient-2f6d23d0-239c-44bb-9033-acab45416029.html\">Bruno Test Elmer (official) (no stated gender), DoB Unknown ( urn:oid:1.2.208.176.1.2#2509479989)</a></p><p><b>episodeOfCare</b>: Identifier: <code>https://sor2.sum.dsdn.dk/#id=1385391000016002</code>/urn:uuid:d3779c52-1fc9-4d96-93dc-693a4faab338</p></div>"
      },
      "status" : "finished",
      "class" : {
        "system" : "http://terminology.hl7.org/CodeSystem/v3-ActCode",
        "code" : "IMP"
      },
      "subject" : {
        "reference" : "Patient/2f6d23d0-239c-44bb-9033-acab45416029"
      },
      "episodeOfCare" : [{
        "identifier" : {
          "system" : "https://sor2.sum.dsdn.dk/#id=1385391000016002",
          "value" : "urn:uuid:d3779c52-1fc9-4d96-93dc-693a4faab338"
        }
      }]
    }
  },
  {
    "fullUrl" : "https://medcomfhir.dk/ig/carecommunication/Organization/674cb75e-4a5c-4609-b740-8b09e06b0e42",
    "resource" : {
      "resourceType" : "Organization",
      "id" : "674cb75e-4a5c-4609-b740-8b09e06b0e42",
      "meta" : {
        "profile" : ["http://medcomfhir.dk/ig/messaging/StructureDefinition/medcom-messaging-organization|4.0.1"]
      },
      "text" : {
        "status" : "generated",
        "div" : "<div xmlns=\"http://www.w3.org/1999/xhtml\"><a name=\"Organization_674cb75e-4a5c-4609-b740-8b09e06b0e42\"> </a><p class=\"res-header-id\"><b>Generated Narrative: Organization 674cb75e-4a5c-4609-b740-8b09e06b0e42</b></p><a name=\"674cb75e-4a5c-4609-b740-8b09e06b0e42\"> </a><a name=\"hc674cb75e-4a5c-4609-b740-8b09e06b0e42\"> </a><div style=\"display: inline-block; background-color: #d9e0e7; padding: 6px; margin: 4px; border: 1px solid #8da1b4; border-radius: 5px; line-height: 60%\"><p style=\"margin-bottom: 0px\"/><p style=\"margin-bottom: 0px\">Profile: <a href=\"http://medcomfhir.dk/ig/messaging/4.0.1/StructureDefinition-medcom-messaging-organization.html\">MedComMessagingOrganizationversion: null4.0.1)</a></p></div><p><b>identifier</b>: <code>https://www.gs1.org/gln</code>/5790002632389, <code>urn:oid:1.2.208.176.1.1</code>/1385391000016002</p><p><b>name</b>: Pædagogisk Psykologisk Rådgivning</p></div>"
      },
      "identifier" : [{
        "system" : "https://www.gs1.org/gln",
        "value" : "5790002632389"
      },
      {
        "system" : "urn:oid:1.2.208.176.1.1",
        "value" : "1385391000016002"
      }],
      "name" : "Pædagogisk Psykologisk Rådgivning"
    }
  },
  {
    "fullUrl" : "https://medcomfhir.dk/ig/carecommunication/Organization/c0347f2c-f11e-440f-99f6-a1ebf3b53e74",
    "resource" : {
      "resourceType" : "Organization",
      "id" : "c0347f2c-f11e-440f-99f6-a1ebf3b53e74",
      "meta" : {
        "profile" : ["http://medcomfhir.dk/ig/messaging/StructureDefinition/medcom-messaging-organization|4.0.1"]
      },
      "text" : {
        "status" : "generated",
        "div" : "<div xmlns=\"http://www.w3.org/1999/xhtml\"><a name=\"Organization_c0347f2c-f11e-440f-99f6-a1ebf3b53e74\"> </a><p class=\"res-header-id\"><b>Generated Narrative: Organization c0347f2c-f11e-440f-99f6-a1ebf3b53e74</b></p><a name=\"c0347f2c-f11e-440f-99f6-a1ebf3b53e74\"> </a><a name=\"hcc0347f2c-f11e-440f-99f6-a1ebf3b53e74\"> </a><div style=\"display: inline-block; background-color: #d9e0e7; padding: 6px; margin: 4px; border: 1px solid #8da1b4; border-radius: 5px; line-height: 60%\"><p style=\"margin-bottom: 0px\"/><p style=\"margin-bottom: 0px\">Profile: <a href=\"http://medcomfhir.dk/ig/messaging/4.0.1/StructureDefinition-medcom-messaging-organization.html\">MedComMessagingOrganizationversion: null4.0.1)</a></p></div><p><b>identifier</b>: <code>https://www.gs1.org/gln</code>/5790002408496, <code>urn:oid:1.2.208.176.1.1</code>/1017421000016003</p><p><b>name</b>: 2100 Lægehuset Østerbro</p></div>"
      },
      "identifier" : [{
        "system" : "https://www.gs1.org/gln",
        "value" : "5790002408496"
      },
      {
        "system" : "urn:oid:1.2.208.176.1.1",
        "value" : "1017421000016003"
      }],
      "name" : "2100 Lægehuset Østerbro"
    }
  },
  {
    "fullUrl" : "https://medcomfhir.dk/ig/carecommunication/Provenance/1f80bcba-9156-4d5b-8ded-8ecff623ffce",
    "resource" : {
      "resourceType" : "Provenance",
      "id" : "1f80bcba-9156-4d5b-8ded-8ecff623ffce",
      "meta" : {
        "profile" : ["http://medcomfhir.dk/ig/carecommunication/StructureDefinition/medcom-careCommunication-provenance"]
      },
      "text" : {
        "status" : "generated",
        "div" : "<div xmlns=\"http://www.w3.org/1999/xhtml\"><a name=\"Provenance_1f80bcba-9156-4d5b-8ded-8ecff623ffce\"> </a><p class=\"res-header-id\"><b>Generated Narrative: Provenance 1f80bcba-9156-4d5b-8ded-8ecff623ffce</b></p><a name=\"1f80bcba-9156-4d5b-8ded-8ecff623ffce\"> </a><a name=\"hc1f80bcba-9156-4d5b-8ded-8ecff623ffce\"> </a><div style=\"display: inline-block; background-color: #d9e0e7; padding: 6px; margin: 4px; border: 1px solid #8da1b4; border-radius: 5px; line-height: 60%\"><p style=\"margin-bottom: 0px\"/><p style=\"margin-bottom: 0px\">Profile: <a href=\"http://medcomfhir.dk/ig/carecommunication/5.0.1/StructureDefinition-medcom-careCommunication-provenance.html\">MedComCareCommunicationProvenance</a></p></div><p>Provenance for <a href=\"MessageHeader-a07d8566-961a-47e1-80b9-cc9b2d2e16cb.html\">MessageHeader: event[x] = Care Communication Message (MedComMessagingEventCodes#care-communication-message); definition = http://medcomfhir.dk/ig/messagedefinitions/MessageDefinition/MedComCareCommunicationMessageDefinition|5.0</a></p><p>Summary</p><table class=\"grid\"><tr><td>Occurrence</td><td>2024-09-15 15:20:00+0200</td></tr><tr><td>Recorded</td><td>2024-09-15 15:20:00+0200</td></tr><tr><td>Activity</td><td><span title=\"Codes:{http://medcomfhir.dk/ig/terminology/CodeSystem/medcom-messaging-activityCodes new-message}\">A new message has been sent</span></td></tr></table><p><b>Agents</b></p><table class=\"grid\"><tr><td><b>who</b></td></tr><tr><td><a href=\"Organization-674cb75e-4a5c-4609-b740-8b09e06b0e42.html\">Organization Pædagogisk Psykologisk Rådgivning</a></td></tr></table></div>"
      },
      "target" : [{
        "reference" : "MessageHeader/a07d8566-961a-47e1-80b9-cc9b2d2e16cb"
      }],
      "occurredDateTime" : "2024-09-15T15:20:00+02:00",
      "recorded" : "2024-09-15T15:20:00+02:00",
      "activity" : {
        "coding" : [{
          "system" : "http://medcomfhir.dk/ig/terminology/CodeSystem/medcom-messaging-activityCodes",
          "code" : "new-message"
        }]
      },
      "agent" : [{
        "who" : {
          "reference" : "Organization/674cb75e-4a5c-4609-b740-8b09e06b0e42"
        }
      }],
      "entity" : [{
        "role" : "source",
        "what" : {
          "identifier" : {
            "value" : "urn:uuid:ee96d66f-f95a-4f23-855c-44befb31c52b"
          }
        }
      }]
    }
  }]
}