<?xml version="1.0" encoding="UTF-8"?>

<Bundle xmlns="http://hl7.org/fhir">
  <id value="R-Tek-B-82875f08-4b9e-4a23-b81a-e23ec1251334"/>
  <meta>
    <profile value="http://medcomfhir.dk/ig/carecommunication/StructureDefinition/medcom-careCommunication-message"/>
  </meta>
  <type value="message"/>
  <timestamp value="2024-11-02T08:00:00+01:00"/>
  <entry>
    <fullUrl value="https://medcomfhir.dk/ig/carecommunication/MessageHeader/ejklfdsio8klakfd.hjfkdshfjk-hfjkdshfj89432n7f"/>
    <resource>
      <MessageHeader>
        <id value="ejklfdsio8klakfd.hjfkdshfjk-hfjkdshfj89432n7f"/>
        <meta>
          <profile value="http://medcomfhir.dk/ig/carecommunication/StructureDefinition/medcom-careCommunication-messageHeader"/>
        </meta>
        <text>
          <status value="generated"/><div xmlns="http://www.w3.org/1999/xhtml"><a name="MessageHeader_ejklfdsio8klakfd.hjfkdshfjk-hfjkdshfj89432n7f"> </a><p class="res-header-id"><b>Generated Narrative: MessageHeader ejklfdsio8klakfd.hjfkdshfjk-hfjkdshfj89432n7f</b></p><a name="ejklfdsio8klakfd.hjfkdshfjk-hfjkdshfj89432n7f"> </a><a name="hcejklfdsio8klakfd.hjfkdshfjk-hfjkdshfj89432n7f"> </a><div style="display: inline-block; background-color: #d9e0e7; padding: 6px; margin: 4px; border: 1px solid #8da1b4; border-radius: 5px; line-height: 60%"><p style="margin-bottom: 0px"/><p style="margin-bottom: 0px">Profile: <a href="http://medcomfhir.dk/ig/carecommunication/5.0.0/StructureDefinition-medcom-careCommunication-messageHeader.html">MedComCareCommunicationMessageHeader</a></p></div><p><b>event</b>: <a href="http://medcomfhir.dk/ig/terminology/1.8.1/CodeSystem-medcom-messaging-eventCodes.html#medcom-messaging-eventCodes-care-communication-message">MedComMessagingEventCodes care-communication-message</a>: Care Communication Message</p><h3>Destinations</h3><table class="grid"><tr><td style="display: none">-</td><td><b>Extension</b></td><td><b>Endpoint</b></td><td><b>Receiver</b></td></tr><tr><td style="display: none">*</td><td/><td><a href="https://sor2.sum.dsdn.dk/#id=330461000016004">https://sor2.sum.dsdn.dk/#id=330461000016004</a></td><td><a href="Organization-ghjghgh.html">Organization Sundhedsplejen, Aabenraa kommune</a></td></tr></table><p><b>sender</b>: <a href="Organization-dfhjkshertu6787bjbsjnmbdf-hfjdks7.html">Organization Klinik for Ældresygdomme, AUH, Skejby</a></p><h3>Sources</h3><table class="grid"><tr><td style="display: none">-</td><td><b>Endpoint</b></td></tr><tr><td style="display: none">*</td><td><a href="https://sor2.sum.dsdn.dk/#id=4412110000160004">https://sor2.sum.dsdn.dk/#id=4412110000160004</a></td></tr></table><p><b>focus</b>: <a href="Communication-45645.hfjksr7.klklj.html">Communication: identifier = urn:uuid:3fab3414-6c8b-45bf-af93-27dd333554c6; status = unknown; category = Hjælpemidler</a></p><p><b>definition</b>: <a href="http://medcomfhir.dk/ig/messagedefinitions/1.0.0/MessageDefinition-MedComCareCommunicationMessageDefinitionV5.0.html">http://medcomfhir.dk/ig/messagedefinitions/MessageDefinition/MedComCareCommunicationMessageDefinition|5.0</a></p></div>
        </text>
        <eventCoding>
          <system value="http://medcomfhir.dk/ig/terminology/CodeSystem/medcom-messaging-eventCodes"/>
          <code value="care-communication-message"/>
        </eventCoding>
        <destination>
          <extension url="http://medcomfhir.dk/ig/messaging/StructureDefinition/medcom-messaging-destinationUseExtension">
            <valueCoding>
              <system value="http://medcomfhir.dk/ig/terminology/CodeSystem/medcom-messaging-destinationUse"/>
              <code value="primary"/>
            </valueCoding>
          </extension>
          <endpoint value="https://sor2.sum.dsdn.dk/#id=330461000016004"/>
          <receiver>
            <reference value="Organization/ghjghgh"/>
          </receiver>
        </destination>
        <sender>
          <reference value="Organization/dfhjkshertu6787bjbsjnmbdf-hfjdks7"/>
        </sender>
        <source>
          <endpoint value="https://sor2.sum.dsdn.dk/#id=4412110000160004"/>
        </source>
        <focus>
          <reference value="Communication/45645.hfjksr7.klklj"/>
        </focus>
        <definition value="http://medcomfhir.dk/ig/messagedefinitions/MessageDefinition/MedComCareCommunicationMessageDefinition|5.0"/>
      </MessageHeader>
    </resource>
  </entry>
  <entry>
    <fullUrl value="https://medcomfhir.dk/ig/carecommunication/Patient/fdsgjhfrgeu567485-.fdsf"/>
    <resource>
      <Patient>
        <id value="fdsgjhfrgeu567485-.fdsf"/>
        <meta>
          <profile value="http://medcomfhir.dk/ig/core/StructureDefinition/medcom-core-patient"/>
        </meta>
        <text>
          <status value="generated"/><div xmlns="http://www.w3.org/1999/xhtml"><a name="Patient_fdsgjhfrgeu567485-.fdsf"> </a><p class="res-header-id"><b>Generated Narrative: Patient fdsgjhfrgeu567485-.fdsf</b></p><a name="fdsgjhfrgeu567485-.fdsf"> </a><a name="hcfdsgjhfrgeu567485-.fdsf"> </a><div style="display: inline-block; background-color: #d9e0e7; padding: 6px; margin: 4px; border: 1px solid #8da1b4; border-radius: 5px; line-height: 60%"><p style="margin-bottom: 0px"/><p style="margin-bottom: 0px">Profile: <a href="http://medcomfhir.dk/ig/core/3.0.0/StructureDefinition-medcom-core-patient.html">MedComCorePatient</a></p></div><p style="border: 1px #661aff solid; background-color: #e6e6ff; padding: 10px;">Peter null (official) Mand, DoB Unknown ( urn:oid:1.2.208.176.1.6.1.3.177#1206550VK9)</p><hr/></div>
        </text>
        <identifier>
          <system value="urn:oid:1.2.208.176.1.6.1.3.177"/>
          <value value="1206550VK9"/>
        </identifier>
        <name>
          <use value="official"/>
          <family>
            <extension url="http://hl7.org/fhir/StructureDefinition/data-absent-reason">
              <valueCode value="unknown"/>
            </extension>
          </family>
          <given value="Peter"/>
        </name>
        <gender value="male"/>
      </Patient>
    </resource>
  </entry>
  <entry>
    <fullUrl value="https://medcomfhir.dk/ig/carecommunication/Communication/45645.hfjksr7.klklj"/>
    <resource>
      <Communication>
        <id value="45645.hfjksr7.klklj"/>
        <meta>
          <profile value="http://medcomfhir.dk/ig/carecommunication/StructureDefinition/medcom-careCommunication-communication"/>
        </meta>
        <text>
          <status value="extensions"/><div xmlns="http://www.w3.org/1999/xhtml"><a name="Communication_45645.hfjksr7.klklj"> </a><p class="res-header-id"><b>Generated Narrative: Communication 45645.hfjksr7.klklj</b></p><a name="45645.hfjksr7.klklj"> </a><a name="hc45645.hfjksr7.klklj"> </a><div style="display: inline-block; background-color: #d9e0e7; padding: 6px; margin: 4px; border: 1px solid #8da1b4; border-radius: 5px; line-height: 60%"><p style="margin-bottom: 0px"/><p style="margin-bottom: 0px">Profile: <a href="http://medcomfhir.dk/ig/carecommunication/5.0.0/StructureDefinition-medcom-careCommunication-communication.html">MedComCareCommunication</a></p></div><p><b>identifier</b>: urn:uuid:3fab3414-6c8b-45bf-af93-27dd333554c6</p><p><b>status</b>: Unknown</p><p><b>category</b>: <span title="Codes:{http://medcomfhir.dk/ig/terminology/CodeSystem/medcom-careCommunication-categoryCodes assistive-devices}">Hjælpemidler</span></p><p><b>subject</b>: <a href="Patient-fdsgjhfrgeu567485-.fdsf.html">Peter null (official) Mand, DoB Unknown ( urn:oid:1.2.208.176.1.6.1.3.177#1206550VK9)</a></p><blockquote><p><b>payload</b></p><p><b>DateTimeExtension</b>: 2024-11-02 08:00:00+0100</p><p><b>IdentifierExtension</b>: urn:uuid:729e63f5-a691-441e-84fe-953594b801b2</p><p><b>PractitionerExtension</b>: <a href="PractitionerRole-j.k.k.67843274je.html">PractitionerRole Sygeplejerske</a></p><p><b>ContactExtension</b>: <a href="tel:+4512345789">+4512345789</a></p><p><b>content</b>: Til rette vedkommende. Har I mon vist det rigtige tidspunkt?
Hilsen Michael Burns
Sygeplejerske</p></blockquote></div>
        </text>
        <identifier>
          <value value="urn:uuid:3fab3414-6c8b-45bf-af93-27dd333554c6"/>
        </identifier>
        <status value="unknown"/>
        <category>
          <coding>
            <system value="http://medcomfhir.dk/ig/terminology/CodeSystem/medcom-careCommunication-categoryCodes"/>
            <code value="assistive-devices"/>
          </coding>
        </category>
        <subject>
          <reference value="Patient/fdsgjhfrgeu567485-.fdsf"/>
        </subject>
        <payload>
          <extension url="http://medcomfhir.dk/ig/core/StructureDefinition/medcom-core-datetime-extension">
            <valueDateTime value="2024-11-02T08:00:00+01:00"/>
          </extension>
          <extension url="http://medcomfhir.dk/ig/core/StructureDefinition/medcom-core-identifier-extension">
            <valueIdentifier>
              <value value="urn:uuid:729e63f5-a691-441e-84fe-953594b801b2"/>
              <assigner>
                <reference value="Organization/dfhjkshertu6787bjbsjnmbdf-hfjdks7"/>
              </assigner>
            </valueIdentifier>
          </extension>
          <extension url="http://medcomfhir.dk/ig/core/StructureDefinition/medcom-core-practitioner-extension">
            <valueReference>
              <reference value="PractitionerRole/j.k.k.67843274je"/>
            </valueReference>
          </extension>
          <extension url="http://medcomfhir.dk/ig/core/StructureDefinition/medcom-core-contact-extension">
            <valueContactPoint>
              <system value="phone"/>
              <value value="+4512345789"/>
            </valueContactPoint>
          </extension>
          <contentString value="Til rette vedkommende. Har I mon vist det rigtige tidspunkt?&#xA;Hilsen Michael Burns&#xA;Sygeplejerske"/>
        </payload>
      </Communication>
    </resource>
  </entry>
  <entry>
    <fullUrl value="https://medcomfhir.dk/ig/carecommunication/PractitionerRole/j.k.k.67843274je"/>
    <resource>
      <PractitionerRole>
        <id value="j.k.k.67843274je"/>
        <meta>
          <profile value="http://medcomfhir.dk/ig/core/StructureDefinition/medcom-core-practitionerrole"/>
        </meta>
        <text>
          <status value="generated"/><div xmlns="http://www.w3.org/1999/xhtml"><a name="PractitionerRole_j.k.k.67843274je"> </a><p class="res-header-id"><b>Generated Narrative: PractitionerRole j.k.k.67843274je</b></p><a name="j.k.k.67843274je"> </a><a name="hcj.k.k.67843274je"> </a><div style="display: inline-block; background-color: #d9e0e7; padding: 6px; margin: 4px; border: 1px solid #8da1b4; border-radius: 5px; line-height: 60%"><p style="margin-bottom: 0px"/><p style="margin-bottom: 0px">Profile: <a href="http://medcomfhir.dk/ig/core/3.0.0/StructureDefinition-medcom-core-practitionerrole.html">MedComCorePractitionerRole</a></p></div><p><b>practitioner</b>: <a href="Practitioner-hfkjsu574783yhfjdx67-hjk.html">Practitioner Michael Burns </a></p><p><b>code</b>: <span title="Codes:{http://medcomfhir.dk/ig/terminology/CodeSystem/medcom-core-PractitionerRolesSKSadministrativ sygeplejerske}">Sygeplejerske</span></p></div>
        </text>
        <practitioner>
          <reference value="Practitioner/hfkjsu574783yhfjdx67-hjk"/>
        </practitioner>
        <code>
          <coding>
            <system value="http://medcomfhir.dk/ig/terminology/CodeSystem/medcom-core-PractitionerRolesSKSadministrativ"/>
            <code value="sygeplejerske"/>
          </coding>
        </code>
      </PractitionerRole>
    </resource>
  </entry>
  <entry>
    <fullUrl value="https://medcomfhir.dk/ig/carecommunication/Practitioner/hfkjsu574783yhfjdx67-hjk"/>
    <resource>
      <Practitioner>
        <id value="hfkjsu574783yhfjdx67-hjk"/>
        <meta>
          <profile value="http://medcomfhir.dk/ig/core/StructureDefinition/medcom-core-practitioner"/>
        </meta>
        <text>
          <status value="generated"/><div xmlns="http://www.w3.org/1999/xhtml"><a name="Practitioner_hfkjsu574783yhfjdx67-hjk"> </a><p class="res-header-id"><b>Generated Narrative: Practitioner hfkjsu574783yhfjdx67-hjk</b></p><a name="hfkjsu574783yhfjdx67-hjk"> </a><a name="hchfkjsu574783yhfjdx67-hjk"> </a><div style="display: inline-block; background-color: #d9e0e7; padding: 6px; margin: 4px; border: 1px solid #8da1b4; border-radius: 5px; line-height: 60%"><p style="margin-bottom: 0px"/><p style="margin-bottom: 0px">Profile: <a href="http://medcomfhir.dk/ig/core/3.0.0/StructureDefinition-medcom-core-practitioner.html">MedComCorePractitioner</a></p></div><p><b>name</b>: Michael Burns </p></div>
        </text>
        <name>
          <family value="Burns"/>
          <given value="Michael"/>
        </name>
      </Practitioner>
    </resource>
  </entry>
  <entry>
    <fullUrl value="https://medcomfhir.dk/ig/carecommunication/Organization/dfhjkshertu6787bjbsjnmbdf-hfjdks7"/>
    <resource>
      <Organization>
        <id value="dfhjkshertu6787bjbsjnmbdf-hfjdks7"/>
        <meta>
          <profile value="http://medcomfhir.dk/ig/messaging/StructureDefinition/medcom-messaging-organization"/>
        </meta>
        <text>
          <status value="generated"/><div xmlns="http://www.w3.org/1999/xhtml"><a name="Organization_dfhjkshertu6787bjbsjnmbdf-hfjdks7"> </a><p class="res-header-id"><b>Generated Narrative: Organization dfhjkshertu6787bjbsjnmbdf-hfjdks7</b></p><a name="dfhjkshertu6787bjbsjnmbdf-hfjdks7"> </a><a name="hcdfhjkshertu6787bjbsjnmbdf-hfjdks7"> </a><div style="display: inline-block; background-color: #d9e0e7; padding: 6px; margin: 4px; border: 1px solid #8da1b4; border-radius: 5px; line-height: 60%"><p style="margin-bottom: 0px"/><p style="margin-bottom: 0px">Profile: <a href="http://medcomfhir.dk/ig/messaging/4.0.0/StructureDefinition-medcom-messaging-organization.html">MedComMessagingOrganization</a></p></div><p><b>identifier</b>: <code>https://www.gs1.org/gln</code>/5790001987244, <code>urn:oid:1.2.208.176.1.1</code>/441211000016000</p><p><b>name</b>: Klinik for Ældresygdomme, AUH, Skejby</p></div>
        </text>
        <identifier>
          <system value="https://www.gs1.org/gln"/>
          <value value="5790001987244"/>
        </identifier>
        <identifier>
          <system value="urn:oid:1.2.208.176.1.1"/>
          <value value="441211000016000"/>
        </identifier>
        <name value="Klinik for Ældresygdomme, AUH, Skejby"/>
      </Organization>
    </resource>
  </entry>
  <entry>
    <fullUrl value="https://medcomfhir.dk/ig/carecommunication/Organization/ghjghgh"/>
    <resource>
      <Organization>
        <id value="ghjghgh"/>
        <meta>
          <profile value="http://medcomfhir.dk/ig/messaging/StructureDefinition/medcom-messaging-organization"/>
        </meta>
        <text>
          <status value="generated"/><div xmlns="http://www.w3.org/1999/xhtml"><a name="Organization_ghjghgh"> </a><p class="res-header-id"><b>Generated Narrative: Organization ghjghgh</b></p><a name="ghjghgh"> </a><a name="hcghjghgh"> </a><div style="display: inline-block; background-color: #d9e0e7; padding: 6px; margin: 4px; border: 1px solid #8da1b4; border-radius: 5px; line-height: 60%"><p style="margin-bottom: 0px"/><p style="margin-bottom: 0px">Profile: <a href="http://medcomfhir.dk/ig/messaging/4.0.0/StructureDefinition-medcom-messaging-organization.html">MedComMessagingOrganization</a></p></div><p><b>identifier</b>: <code>https://www.gs1.org/gln</code>/5790001353308, <code>urn:oid:1.2.208.176.1.1</code>/330461000016004</p><p><b>name</b>: Sundhedsplejen, Aabenraa kommune</p></div>
        </text>
        <identifier>
          <system value="https://www.gs1.org/gln"/>
          <value value="5790001353308"/>
        </identifier>
        <identifier>
          <system value="urn:oid:1.2.208.176.1.1"/>
          <value value="330461000016004"/>
        </identifier>
        <name value="Sundhedsplejen, Aabenraa kommune"/>
      </Organization>
    </resource>
  </entry>
  <entry>
    <fullUrl value="https://medcomfhir.dk/ig/carecommunication/Provenance/hfdjks887.8.89frkdshjf778"/>
    <resource>
      <Provenance>
        <id value="hfdjks887.8.89frkdshjf778"/>
        <meta>
          <profile value="http://medcomfhir.dk/ig/carecommunication/StructureDefinition/medcom-careCommunication-provenance"/>
        </meta>
        <text>
          <status value="generated"/><div xmlns="http://www.w3.org/1999/xhtml"><a name="Provenance_hfdjks887.8.89frkdshjf778"> </a><p class="res-header-id"><b>Generated Narrative: Provenance hfdjks887.8.89frkdshjf778</b></p><a name="hfdjks887.8.89frkdshjf778"> </a><a name="hchfdjks887.8.89frkdshjf778"> </a><div style="display: inline-block; background-color: #d9e0e7; padding: 6px; margin: 4px; border: 1px solid #8da1b4; border-radius: 5px; line-height: 60%"><p style="margin-bottom: 0px"/><p style="margin-bottom: 0px">Profile: <a href="http://medcomfhir.dk/ig/carecommunication/5.0.0/StructureDefinition-medcom-careCommunication-provenance.html">MedComCareCommunicationProvenance</a></p></div><p>Provenance for <a href="MessageHeader-ejklfdsio8klakfd.hjfkdshfjk-hfjkdshfj89432n7f.html">MessageHeader: event[x] = Care Communication Message (MedComMessagingEventCodes#care-communication-message); definition = http://medcomfhir.dk/ig/messagedefinitions/MessageDefinition/MedComCareCommunicationMessageDefinition|5.0</a></p><p>Summary</p><table class="grid"><tr><td>Occurrence</td><td>2024-11-02 08:00:00+0100</td></tr><tr><td>Recorded</td><td>2024-11-02 08:00:00+0100</td></tr><tr><td>Activity</td><td><span title="Codes:{http://medcomfhir.dk/ig/terminology/CodeSystem/medcom-messaging-activityCodes new-message}">A new message has been sent</span></td></tr></table><p><b>Agents</b></p><table class="grid"><tr><td><b>who</b></td></tr><tr><td><a href="Organization-dfhjkshertu6787bjbsjnmbdf-hfjdks7.html">Organization Klinik for Ældresygdomme, AUH, Skejby</a></td></tr></table></div>
        </text>
        <target>
          <reference value="MessageHeader/ejklfdsio8klakfd.hjfkdshfjk-hfjkdshfj89432n7f"/>
        </target>
        <occurredDateTime value="2024-11-02T08:00:00+01:00"/>
        <recorded value="2024-11-02T08:00:00+01:00"/>
        <activity>
          <coding>
            <system value="http://medcomfhir.dk/ig/terminology/CodeSystem/medcom-messaging-activityCodes"/>
            <code value="new-message"/>
          </coding>
        </activity>
        <agent>
          <who>
            <reference value="Organization/dfhjkshertu6787bjbsjnmbdf-hfjdks7"/>
          </who>
        </agent>
        <entity>
          <role value="source"/>
          <what>
            <identifier>
              <value value="urn:uuid:729e63f5-a691-441e-84fe-953594b801b2"/>
            </identifier>
          </what>
        </entity>
      </Provenance>
    </resource>
  </entry>
</Bundle>