<?xml version="1.0" encoding="UTF-8"?>

<Bundle xmlns="http://hl7.org/fhir">
  <id value="send-Tek-CPR-2-7e1a1611-b69b-4538-bbc3-03e13b67b517"/>
  <meta>
    <profile value="http://medcomfhir.dk/ig/carecommunication/StructureDefinition/medcom-careCommunication-message"/>
  </meta>
  <type value="message"/>
  <timestamp value="2025-09-29T09:00:00+02:00"/>
  <entry>
    <fullUrl value="https://medcomfhir.dk/ig/carecommunication/MessageHeader/855bee22-ca86-4ac4-99f9-7981aeced68b"/>
    <resource>
      <MessageHeader>
        <id value="855bee22-ca86-4ac4-99f9-7981aeced68b"/>
        <meta>
          <profile value="http://medcomfhir.dk/ig/carecommunication/StructureDefinition/medcom-careCommunication-messageHeader"/>
        </meta>
        <text>
          <status value="generated"/><div xmlns="http://www.w3.org/1999/xhtml"><a name="MessageHeader_855bee22-ca86-4ac4-99f9-7981aeced68b"> </a><p class="res-header-id"><b>Generated Narrative: MessageHeader 855bee22-ca86-4ac4-99f9-7981aeced68b</b></p><a name="855bee22-ca86-4ac4-99f9-7981aeced68b"> </a><a name="hc855bee22-ca86-4ac4-99f9-7981aeced68b"> </a><div style="display: inline-block; background-color: #d9e0e7; padding: 6px; margin: 4px; border: 1px solid #8da1b4; border-radius: 5px; line-height: 60%"><p style="margin-bottom: 0px"/><p style="margin-bottom: 0px">Profile: <a href="http://medcomfhir.dk/ig/carecommunication/5.0.0/StructureDefinition-medcom-careCommunication-messageHeader.html">MedComCareCommunicationMessageHeader</a></p></div><p><b>event</b>: <a href="http://medcomfhir.dk/ig/terminology/1.8.1/CodeSystem-medcom-messaging-eventCodes.html#medcom-messaging-eventCodes-care-communication-message">MedComMessagingEventCodes care-communication-message</a>: Care Communication Message</p><h3>Destinations</h3><table class="grid"><tr><td style="display: none">-</td><td><b>Extension</b></td><td><b>Endpoint</b></td><td><b>Receiver</b></td></tr><tr><td style="display: none">*</td><td/><td><a href="https://sor2.sum.dsdn.dk/#id=325251000016005">https://sor2.sum.dsdn.dk/#id=325251000016005</a></td><td><a href="Organization-293c5fc4-dd72-4136-b83e-c88b317c4c00.html">Organization MedCom XDIS91</a></td></tr></table><p><b>sender</b>: <a href="Organization-b7402e44-e37b-4a9e-8d1c-daf509fd6cb8.html">Organization MedCom FDIS91</a></p><h3>Sources</h3><table class="grid"><tr><td style="display: none">-</td><td><b>Endpoint</b></td></tr><tr><td style="display: none">*</td><td><a href="https://sor2.sum.dsdn.dk/#id=325371000016006">https://sor2.sum.dsdn.dk/#id=325371000016006</a></td></tr></table><p><b>focus</b>: <a href="Communication-48702680-7589-43bb-a350-53df7d85e996.html">Communication: identifier = urn:uuid:eca85df4-e6c9-41d7-88c0-7e6fb79029b9; status = unknown; category = Telemedicin</a></p><p><b>definition</b>: <a href="http://medcomfhir.dk/ig/messagedefinitions/1.0.0/MessageDefinition-MedComCareCommunicationMessageDefinitionV5.0.html">http://medcomfhir.dk/ig/messagedefinitions/MessageDefinition/MedComCareCommunicationMessageDefinition|5.0</a></p></div>
        </text>
        <eventCoding>
          <system value="http://medcomfhir.dk/ig/terminology/CodeSystem/medcom-messaging-eventCodes"/>
          <code value="care-communication-message"/>
        </eventCoding>
        <destination>
          <extension url="http://medcomfhir.dk/ig/messaging/StructureDefinition/medcom-messaging-destinationUseExtension">
            <valueCoding>
              <system value="http://medcomfhir.dk/ig/terminology/CodeSystem/medcom-messaging-destinationUse"/>
              <code value="primary"/>
            </valueCoding>
          </extension>
          <endpoint value="https://sor2.sum.dsdn.dk/#id=325251000016005"/>
          <receiver>
            <reference value="Organization/293c5fc4-dd72-4136-b83e-c88b317c4c00"/>
          </receiver>
        </destination>
        <sender>
          <reference value="Organization/b7402e44-e37b-4a9e-8d1c-daf509fd6cb8"/>
        </sender>
        <source>
          <endpoint value="https://sor2.sum.dsdn.dk/#id=325371000016006"/>
        </source>
        <focus>
          <reference value="Communication/48702680-7589-43bb-a350-53df7d85e996"/>
        </focus>
        <definition value="http://medcomfhir.dk/ig/messagedefinitions/MessageDefinition/MedComCareCommunicationMessageDefinition|5.0"/>
      </MessageHeader>
    </resource>
  </entry>
  <entry>
    <fullUrl value="https://medcomfhir.dk/ig/carecommunication/Patient/06c62382-cd69-438f-acc7-971a3c47ecea"/>
    <resource>
      <Patient>
        <id value="06c62382-cd69-438f-acc7-971a3c47ecea"/>
        <meta>
          <profile value="http://medcomfhir.dk/ig/core/StructureDefinition/medcom-core-patient"/>
        </meta>
        <text>
          <status value="generated"/><div xmlns="http://www.w3.org/1999/xhtml"><a name="Patient_06c62382-cd69-438f-acc7-971a3c47ecea"> </a><p class="res-header-id"><b>Generated Narrative: Patient 06c62382-cd69-438f-acc7-971a3c47ecea</b></p><a name="06c62382-cd69-438f-acc7-971a3c47ecea"> </a><a name="hc06c62382-cd69-438f-acc7-971a3c47ecea"> </a><div style="display: inline-block; background-color: #d9e0e7; padding: 6px; margin: 4px; border: 1px solid #8da1b4; border-radius: 5px; line-height: 60%"><p style="margin-bottom: 0px"/><p style="margin-bottom: 0px">Profile: <a href="http://medcomfhir.dk/ig/core/3.0.0/StructureDefinition-medcom-core-patient.html">MedComCorePatient</a></p></div><p style="border: 1px #661aff solid; background-color: #e6e6ff; padding: 10px;">Bruno Test Elmer (official) (no stated gender), DoB Unknown ( urn:oid:1.2.208.176.1.6.1.1#0703921VJ5)</p><hr/><table class="grid"><tr><td style="background-color: #f3f5da" title="Other Ids (see the one above)">Other Ids:</td><td colspan="3"><ul><li><code>urn:oid:1.2.208.176.1.2</code>/2509479989</li><li><code>urn:oid:1.2.208.176.1.6.1.3</code>/1206550VK9</li></ul></td></tr></table></div>
        </text>
        <identifier>
          <system value="urn:oid:1.2.208.176.1.6.1.1"/>
          <value value="0703921VJ5"/>
        </identifier>
        <identifier>
          <system value="urn:oid:1.2.208.176.1.2"/>
          <value value="2509479989"/>
        </identifier>
        <identifier>
          <system value="urn:oid:1.2.208.176.1.6.1.3"/>
          <value value="1206550VK9"/>
        </identifier>
        <name>
          <use value="official"/>
          <family value="Elmer"/>
          <given value="Bruno"/>
          <given value="Test"/>
        </name>
      </Patient>
    </resource>
  </entry>
  <entry>
    <fullUrl value="https://medcomfhir.dk/ig/carecommunication/Communication/48702680-7589-43bb-a350-53df7d85e996"/>
    <resource>
      <Communication>
        <id value="48702680-7589-43bb-a350-53df7d85e996"/>
        <meta>
          <profile value="http://medcomfhir.dk/ig/carecommunication/StructureDefinition/medcom-careCommunication-communication"/>
        </meta>
        <text>
          <status value="extensions"/><div xmlns="http://www.w3.org/1999/xhtml"><a name="Communication_48702680-7589-43bb-a350-53df7d85e996"> </a><p class="res-header-id"><b>Generated Narrative: Communication 48702680-7589-43bb-a350-53df7d85e996</b></p><a name="48702680-7589-43bb-a350-53df7d85e996"> </a><a name="hc48702680-7589-43bb-a350-53df7d85e996"> </a><div style="display: inline-block; background-color: #d9e0e7; padding: 6px; margin: 4px; border: 1px solid #8da1b4; border-radius: 5px; line-height: 60%"><p style="margin-bottom: 0px"/><p style="margin-bottom: 0px">Profile: <a href="http://medcomfhir.dk/ig/carecommunication/5.0.0/StructureDefinition-medcom-careCommunication-communication.html">MedComCareCommunication</a></p></div><p><b>identifier</b>: urn:uuid:eca85df4-e6c9-41d7-88c0-7e6fb79029b9</p><p><b>status</b>: Unknown</p><p><b>category</b>: <span title="Codes:{http://medcomfhir.dk/ig/terminology/CodeSystem/medcom-careCommunication-categoryCodes telemedicine}">Telemedicin</span></p><p><b>subject</b>: <a href="Patient-06c62382-cd69-438f-acc7-971a3c47ecea.html">Bruno Test Elmer (official) (no stated gender), DoB Unknown ( urn:oid:1.2.208.176.1.6.1.1#0703921VJ5)</a></p><blockquote><p><b>payload</b></p><p><b>DateTimeExtension</b>: 2025-09-29 09:00:00+0200</p><p><b>IdentifierExtension</b>: urn:uuid:19bb04e9-a3af-4384-9fc5-877f253e2283</p><p><b>PractitionerExtension</b>: <a href="PractitionerRole-b48a8137-95da-4344-9491-0133ddbf6559.html">PractitionerRole Sygeplejerske</a></p><p><b>ContactExtension</b>: <a href="tel:+4512345789">+4512345789</a></p><p><b>content</b>: Dette er en korrespondancemeddelelse med to almidelige-CPR numre, for at tjekke om det ene sættes ned i tekststrengen og det andet i det relevant tag.
Hilsen Michael, sygeplejerske.</p></blockquote></div>
        </text>
        <identifier>
          <value value="urn:uuid:eca85df4-e6c9-41d7-88c0-7e6fb79029b9"/>
        </identifier>
        <status value="unknown"/>
        <category>
          <coding>
            <system value="http://medcomfhir.dk/ig/terminology/CodeSystem/medcom-careCommunication-categoryCodes"/>
            <code value="telemedicine"/>
          </coding>
        </category>
        <subject>
          <reference value="Patient/06c62382-cd69-438f-acc7-971a3c47ecea"/>
        </subject>
        <payload>
          <extension url="http://medcomfhir.dk/ig/core/StructureDefinition/medcom-core-datetime-extension">
            <valueDateTime value="2025-09-29T09:00:00+02:00"/>
          </extension>
          <extension url="http://medcomfhir.dk/ig/core/StructureDefinition/medcom-core-identifier-extension">
            <valueIdentifier>
              <value value="urn:uuid:19bb04e9-a3af-4384-9fc5-877f253e2283"/>
              <assigner>
                <reference value="Organization/b7402e44-e37b-4a9e-8d1c-daf509fd6cb8"/>
              </assigner>
            </valueIdentifier>
          </extension>
          <extension url="http://medcomfhir.dk/ig/core/StructureDefinition/medcom-core-practitioner-extension">
            <valueReference>
              <reference value="PractitionerRole/b48a8137-95da-4344-9491-0133ddbf6559"/>
            </valueReference>
          </extension>
          <extension url="http://medcomfhir.dk/ig/core/StructureDefinition/medcom-core-contact-extension">
            <valueContactPoint>
              <system value="phone"/>
              <value value="+4512345789"/>
            </valueContactPoint>
          </extension>
          <contentString value="Dette er en korrespondancemeddelelse med to almidelige-CPR numre, for at tjekke om det ene sættes ned i tekststrengen og det andet i det relevant tag.&#xA;Hilsen Michael, sygeplejerske."/>
        </payload>
      </Communication>
    </resource>
  </entry>
  <entry>
    <fullUrl value="https://medcomfhir.dk/ig/carecommunication/PractitionerRole/b48a8137-95da-4344-9491-0133ddbf6559"/>
    <resource>
      <PractitionerRole>
        <id value="b48a8137-95da-4344-9491-0133ddbf6559"/>
        <meta>
          <profile value="http://medcomfhir.dk/ig/core/StructureDefinition/medcom-core-practitionerrole"/>
        </meta>
        <text>
          <status value="generated"/><div xmlns="http://www.w3.org/1999/xhtml"><a name="PractitionerRole_b48a8137-95da-4344-9491-0133ddbf6559"> </a><p class="res-header-id"><b>Generated Narrative: PractitionerRole b48a8137-95da-4344-9491-0133ddbf6559</b></p><a name="b48a8137-95da-4344-9491-0133ddbf6559"> </a><a name="hcb48a8137-95da-4344-9491-0133ddbf6559"> </a><div style="display: inline-block; background-color: #d9e0e7; padding: 6px; margin: 4px; border: 1px solid #8da1b4; border-radius: 5px; line-height: 60%"><p style="margin-bottom: 0px"/><p style="margin-bottom: 0px">Profile: <a href="http://medcomfhir.dk/ig/core/3.0.0/StructureDefinition-medcom-core-practitionerrole.html">MedComCorePractitionerRole</a></p></div><p><b>practitioner</b>: <a href="Practitioner-91381294-6a76-41b3-be9b-024e2a4593f1.html">Practitioner Michael Burns </a></p><p><b>code</b>: <span title="Codes:{http://medcomfhir.dk/ig/terminology/CodeSystem/medcom-core-PractitionerRolesSKSadministrativ sygeplejerske}">Sygeplejerske</span></p></div>
        </text>
        <practitioner>
          <reference value="Practitioner/91381294-6a76-41b3-be9b-024e2a4593f1"/>
        </practitioner>
        <code>
          <coding>
            <system value="http://medcomfhir.dk/ig/terminology/CodeSystem/medcom-core-PractitionerRolesSKSadministrativ"/>
            <code value="sygeplejerske"/>
          </coding>
        </code>
      </PractitionerRole>
    </resource>
  </entry>
  <entry>
    <fullUrl value="https://medcomfhir.dk/ig/carecommunication/Practitioner/91381294-6a76-41b3-be9b-024e2a4593f1"/>
    <resource>
      <Practitioner>
        <id value="91381294-6a76-41b3-be9b-024e2a4593f1"/>
        <meta>
          <profile value="http://medcomfhir.dk/ig/core/StructureDefinition/medcom-core-practitioner"/>
        </meta>
        <text>
          <status value="generated"/><div xmlns="http://www.w3.org/1999/xhtml"><a name="Practitioner_91381294-6a76-41b3-be9b-024e2a4593f1"> </a><p class="res-header-id"><b>Generated Narrative: Practitioner 91381294-6a76-41b3-be9b-024e2a4593f1</b></p><a name="91381294-6a76-41b3-be9b-024e2a4593f1"> </a><a name="hc91381294-6a76-41b3-be9b-024e2a4593f1"> </a><div style="display: inline-block; background-color: #d9e0e7; padding: 6px; margin: 4px; border: 1px solid #8da1b4; border-radius: 5px; line-height: 60%"><p style="margin-bottom: 0px"/><p style="margin-bottom: 0px">Profile: <a href="http://medcomfhir.dk/ig/core/3.0.0/StructureDefinition-medcom-core-practitioner.html">MedComCorePractitioner</a></p></div><p><b>name</b>: Michael Burns </p></div>
        </text>
        <name>
          <family value="Burns"/>
          <given value="Michael"/>
        </name>
      </Practitioner>
    </resource>
  </entry>
  <entry>
    <fullUrl value="https://medcomfhir.dk/ig/carecommunication/Organization/b7402e44-e37b-4a9e-8d1c-daf509fd6cb8"/>
    <resource>
      <Organization>
        <id value="b7402e44-e37b-4a9e-8d1c-daf509fd6cb8"/>
        <meta>
          <profile value="http://medcomfhir.dk/ig/messaging/StructureDefinition/medcom-messaging-organization"/>
        </meta>
        <text>
          <status value="generated"/><div xmlns="http://www.w3.org/1999/xhtml"><a name="Organization_b7402e44-e37b-4a9e-8d1c-daf509fd6cb8"> </a><p class="res-header-id"><b>Generated Narrative: Organization b7402e44-e37b-4a9e-8d1c-daf509fd6cb8</b></p><a name="b7402e44-e37b-4a9e-8d1c-daf509fd6cb8"> </a><a name="hcb7402e44-e37b-4a9e-8d1c-daf509fd6cb8"> </a><div style="display: inline-block; background-color: #d9e0e7; padding: 6px; margin: 4px; border: 1px solid #8da1b4; border-radius: 5px; line-height: 60%"><p style="margin-bottom: 0px"/><p style="margin-bottom: 0px">Profile: <a href="http://medcomfhir.dk/ig/messaging/4.0.0/StructureDefinition-medcom-messaging-organization.html">MedComMessagingOrganization</a></p></div><p><b>identifier</b>: <code>https://www.gs1.org/gln</code>/5790000120314, <code>urn:oid:1.2.208.176.1.1</code>/325371000016006</p><p><b>name</b>: MedCom FDIS91</p></div>
        </text>
        <identifier>
          <system value="https://www.gs1.org/gln"/>
          <value value="5790000120314"/>
        </identifier>
        <identifier>
          <system value="urn:oid:1.2.208.176.1.1"/>
          <value value="325371000016006"/>
        </identifier>
        <name value="MedCom FDIS91"/>
      </Organization>
    </resource>
  </entry>
  <entry>
    <fullUrl value="https://medcomfhir.dk/ig/carecommunication/Organization/293c5fc4-dd72-4136-b83e-c88b317c4c00"/>
    <resource>
      <Organization>
        <id value="293c5fc4-dd72-4136-b83e-c88b317c4c00"/>
        <meta>
          <profile value="http://medcomfhir.dk/ig/messaging/StructureDefinition/medcom-messaging-organization"/>
        </meta>
        <text>
          <status value="generated"/><div xmlns="http://www.w3.org/1999/xhtml"><a name="Organization_293c5fc4-dd72-4136-b83e-c88b317c4c00"> </a><p class="res-header-id"><b>Generated Narrative: Organization 293c5fc4-dd72-4136-b83e-c88b317c4c00</b></p><a name="293c5fc4-dd72-4136-b83e-c88b317c4c00"> </a><a name="hc293c5fc4-dd72-4136-b83e-c88b317c4c00"> </a><div style="display: inline-block; background-color: #d9e0e7; padding: 6px; margin: 4px; border: 1px solid #8da1b4; border-radius: 5px; line-height: 60%"><p style="margin-bottom: 0px"/><p style="margin-bottom: 0px">Profile: <a href="http://medcomfhir.dk/ig/messaging/4.0.0/StructureDefinition-medcom-messaging-organization.html">MedComMessagingOrganization</a></p></div><p><b>identifier</b>: <code>https://www.gs1.org/gln</code>/5790000121526, <code>urn:oid:1.2.208.176.1.1</code>/325251000016005</p><p><b>name</b>: MedCom XDIS91</p></div>
        </text>
        <identifier>
          <system value="https://www.gs1.org/gln"/>
          <value value="5790000121526"/>
        </identifier>
        <identifier>
          <system value="urn:oid:1.2.208.176.1.1"/>
          <value value="325251000016005"/>
        </identifier>
        <name value="MedCom XDIS91"/>
      </Organization>
    </resource>
  </entry>
  <entry>
    <fullUrl value="https://medcomfhir.dk/ig/carecommunication/Provenance/7736f642-4e57-419d-ad94-2a944f901375"/>
    <resource>
      <Provenance>
        <id value="7736f642-4e57-419d-ad94-2a944f901375"/>
        <meta>
          <profile value="http://medcomfhir.dk/ig/carecommunication/StructureDefinition/medcom-careCommunication-provenance"/>
        </meta>
        <text>
          <status value="generated"/><div xmlns="http://www.w3.org/1999/xhtml"><a name="Provenance_7736f642-4e57-419d-ad94-2a944f901375"> </a><p class="res-header-id"><b>Generated Narrative: Provenance 7736f642-4e57-419d-ad94-2a944f901375</b></p><a name="7736f642-4e57-419d-ad94-2a944f901375"> </a><a name="hc7736f642-4e57-419d-ad94-2a944f901375"> </a><div style="display: inline-block; background-color: #d9e0e7; padding: 6px; margin: 4px; border: 1px solid #8da1b4; border-radius: 5px; line-height: 60%"><p style="margin-bottom: 0px"/><p style="margin-bottom: 0px">Profile: <a href="http://medcomfhir.dk/ig/carecommunication/5.0.0/StructureDefinition-medcom-careCommunication-provenance.html">MedComCareCommunicationProvenance</a></p></div><p>Provenance for <a href="MessageHeader-855bee22-ca86-4ac4-99f9-7981aeced68b.html">MessageHeader: event[x] = Care Communication Message (MedComMessagingEventCodes#care-communication-message); definition = http://medcomfhir.dk/ig/messagedefinitions/MessageDefinition/MedComCareCommunicationMessageDefinition|5.0</a></p><p>Summary</p><table class="grid"><tr><td>Occurrence</td><td>2025-09-29 09:00:00+0200</td></tr><tr><td>Recorded</td><td>2025-09-29 09:00:00+0200</td></tr><tr><td>Activity</td><td><span title="Codes:{http://medcomfhir.dk/ig/terminology/CodeSystem/medcom-messaging-activityCodes new-message}">A new message has been sent</span></td></tr></table><p><b>Agents</b></p><table class="grid"><tr><td><b>who</b></td></tr><tr><td><a href="Organization-b7402e44-e37b-4a9e-8d1c-daf509fd6cb8.html">Organization MedCom FDIS91</a></td></tr></table></div>
        </text>
        <target>
          <reference value="MessageHeader/855bee22-ca86-4ac4-99f9-7981aeced68b"/>
        </target>
        <occurredDateTime value="2025-09-29T09:00:00+02:00"/>
        <recorded value="2025-09-29T09:00:00+02:00"/>
        <activity>
          <coding>
            <system value="http://medcomfhir.dk/ig/terminology/CodeSystem/medcom-messaging-activityCodes"/>
            <code value="new-message"/>
          </coding>
        </activity>
        <agent>
          <who>
            <reference value="Organization/b7402e44-e37b-4a9e-8d1c-daf509fd6cb8"/>
          </who>
        </agent>
        <entity>
          <role value="source"/>
          <what>
            <identifier>
              <value value="urn:uuid:19bb04e9-a3af-4384-9fc5-877f253e2283"/>
            </identifier>
          </what>
        </entity>
      </Provenance>
    </resource>
  </entry>
</Bundle>