<?xml version="1.0" encoding="UTF-8"?>

<Bundle xmlns="http://hl7.org/fhir">
  <id value="receive-Tek-CPR-3-4d9d90c5-5647-4b4a-8c61-770bc5c3e092"/>
  <meta>
    <profile value="http://medcomfhir.dk/ig/carecommunication/StructureDefinition/medcom-careCommunication-message"/>
  </meta>
  <type value="message"/>
  <timestamp value="2025-09-29T09:00:00+02:00"/>
  <entry>
    <fullUrl value="https://medcomfhir.dk/ig/carecommunication/MessageHeader/73893146-ff6f-4455-99c3-9126c74d16a2"/>
    <resource>
      <MessageHeader>
        <id value="73893146-ff6f-4455-99c3-9126c74d16a2"/>
        <meta>
          <profile value="http://medcomfhir.dk/ig/carecommunication/StructureDefinition/medcom-careCommunication-messageHeader"/>
        </meta>
        <text>
          <status value="generated"/><div xmlns="http://www.w3.org/1999/xhtml"><a name="MessageHeader_73893146-ff6f-4455-99c3-9126c74d16a2"> </a><p class="res-header-id"><b>Generated Narrative: MessageHeader 73893146-ff6f-4455-99c3-9126c74d16a2</b></p><a name="73893146-ff6f-4455-99c3-9126c74d16a2"> </a><a name="hc73893146-ff6f-4455-99c3-9126c74d16a2"> </a><div style="display: inline-block; background-color: #d9e0e7; padding: 6px; margin: 4px; border: 1px solid #8da1b4; border-radius: 5px; line-height: 60%"><p style="margin-bottom: 0px"/><p style="margin-bottom: 0px">Profile: <a href="http://medcomfhir.dk/ig/carecommunication/5.0.0/StructureDefinition-medcom-careCommunication-messageHeader.html">MedComCareCommunicationMessageHeader</a></p></div><p><b>event</b>: <a href="http://medcomfhir.dk/ig/terminology/1.8.1/CodeSystem-medcom-messaging-eventCodes.html#medcom-messaging-eventCodes-care-communication-message">MedComMessagingEventCodes care-communication-message</a>: Care Communication Message</p><h3>Destinations</h3><table class="grid"><tr><td style="display: none">-</td><td><b>Extension</b></td><td><b>Endpoint</b></td><td><b>Receiver</b></td></tr><tr><td style="display: none">*</td><td/><td><a href="https://sor2.sum.dsdn.dk/#id=325251000016005">https://sor2.sum.dsdn.dk/#id=325251000016005</a></td><td><a href="Organization-2af0aac8-cfe4-4fe9-865f-1542f02f5470.html">Organization MedCom XDIS91</a></td></tr></table><p><b>sender</b>: <a href="Organization-c20dccdc-4a01-4e06-b9f2-5246152794ab.html">Organization MedCom FDIS91</a></p><h3>Sources</h3><table class="grid"><tr><td style="display: none">-</td><td><b>Endpoint</b></td></tr><tr><td style="display: none">*</td><td><a href="https://sor2.sum.dsdn.dk/#id=325371000016006">https://sor2.sum.dsdn.dk/#id=325371000016006</a></td></tr></table><p><b>focus</b>: <a href="Communication-be7239e2-f715-45f6-a427-c07c25ef4bef.html">Communication: identifier = urn:uuid:eca85df4-e6c9-41d7-88c0-7e6fb79029b9; status = unknown; category = Undersøgelsessvar</a></p><p><b>definition</b>: <a href="http://medcomfhir.dk/ig/messagedefinitions/1.0.0/MessageDefinition-MedComCareCommunicationMessageDefinitionV5.0.html">http://medcomfhir.dk/ig/messagedefinitions/MessageDefinition/MedComCareCommunicationMessageDefinition|5.0</a></p></div>
        </text>
        <eventCoding>
          <system value="http://medcomfhir.dk/ig/terminology/CodeSystem/medcom-messaging-eventCodes"/>
          <code value="care-communication-message"/>
        </eventCoding>
        <destination>
          <extension url="http://medcomfhir.dk/ig/messaging/StructureDefinition/medcom-messaging-destinationUseExtension">
            <valueCoding>
              <system value="http://medcomfhir.dk/ig/terminology/CodeSystem/medcom-messaging-destinationUse"/>
              <code value="primary"/>
            </valueCoding>
          </extension>
          <endpoint value="https://sor2.sum.dsdn.dk/#id=325251000016005"/>
          <receiver>
            <reference value="Organization/2af0aac8-cfe4-4fe9-865f-1542f02f5470"/>
          </receiver>
        </destination>
        <sender>
          <reference value="Organization/c20dccdc-4a01-4e06-b9f2-5246152794ab"/>
        </sender>
        <source>
          <endpoint value="https://sor2.sum.dsdn.dk/#id=325371000016006"/>
        </source>
        <focus>
          <reference value="Communication/be7239e2-f715-45f6-a427-c07c25ef4bef"/>
        </focus>
        <definition value="http://medcomfhir.dk/ig/messagedefinitions/MessageDefinition/MedComCareCommunicationMessageDefinition|5.0"/>
      </MessageHeader>
    </resource>
  </entry>
  <entry>
    <fullUrl value="https://medcomfhir.dk/ig/carecommunication/Patient/e1ada6b9-0782-4e18-b2e1-85ab642018a9"/>
    <resource>
      <Patient>
        <id value="e1ada6b9-0782-4e18-b2e1-85ab642018a9"/>
        <meta>
          <profile value="http://medcomfhir.dk/ig/core/StructureDefinition/medcom-core-patient"/>
        </meta>
        <text>
          <status value="generated"/><div xmlns="http://www.w3.org/1999/xhtml"><a name="Patient_e1ada6b9-0782-4e18-b2e1-85ab642018a9"> </a><p class="res-header-id"><b>Generated Narrative: Patient e1ada6b9-0782-4e18-b2e1-85ab642018a9</b></p><a name="e1ada6b9-0782-4e18-b2e1-85ab642018a9"> </a><a name="hce1ada6b9-0782-4e18-b2e1-85ab642018a9"> </a><div style="display: inline-block; background-color: #d9e0e7; padding: 6px; margin: 4px; border: 1px solid #8da1b4; border-radius: 5px; line-height: 60%"><p style="margin-bottom: 0px"/><p style="margin-bottom: 0px">Profile: <a href="http://medcomfhir.dk/ig/core/3.0.0/StructureDefinition-medcom-core-patient.html">MedComCorePatient</a></p></div><p style="border: 1px #661aff solid; background-color: #e6e6ff; padding: 10px;">Peter Hansen (official) (no stated gender), DoB Unknown ( urn:oid:1.2.208.176.1.6.1.1#0703921VJ5)</p><hr/><table class="grid"><tr><td style="background-color: #f3f5da" title="Other Id (see the one above)">Other Id:</td><td colspan="3"><code>urn:oid:1.2.208.176.1.6.1.3</code>/1206550VK9</td></tr></table></div>
        </text>
        <identifier>
          <system value="urn:oid:1.2.208.176.1.6.1.1"/>
          <value value="0703921VJ5"/>
        </identifier>
        <identifier>
          <system value="urn:oid:1.2.208.176.1.6.1.3"/>
          <value value="1206550VK9"/>
        </identifier>
        <name>
          <use value="official"/>
          <family value="Hansen"/>
          <given value="Peter"/>
        </name>
      </Patient>
    </resource>
  </entry>
  <entry>
    <fullUrl value="https://medcomfhir.dk/ig/carecommunication/Communication/be7239e2-f715-45f6-a427-c07c25ef4bef"/>
    <resource>
      <Communication>
        <id value="be7239e2-f715-45f6-a427-c07c25ef4bef"/>
        <meta>
          <profile value="http://medcomfhir.dk/ig/carecommunication/StructureDefinition/medcom-careCommunication-communication"/>
        </meta>
        <text>
          <status value="extensions"/><div xmlns="http://www.w3.org/1999/xhtml"><a name="Communication_be7239e2-f715-45f6-a427-c07c25ef4bef"> </a><p class="res-header-id"><b>Generated Narrative: Communication be7239e2-f715-45f6-a427-c07c25ef4bef</b></p><a name="be7239e2-f715-45f6-a427-c07c25ef4bef"> </a><a name="hcbe7239e2-f715-45f6-a427-c07c25ef4bef"> </a><div style="display: inline-block; background-color: #d9e0e7; padding: 6px; margin: 4px; border: 1px solid #8da1b4; border-radius: 5px; line-height: 60%"><p style="margin-bottom: 0px"/><p style="margin-bottom: 0px">Profile: <a href="http://medcomfhir.dk/ig/carecommunication/5.0.0/StructureDefinition-medcom-careCommunication-communication.html">MedComCareCommunication</a></p></div><p><b>identifier</b>: urn:uuid:eca85df4-e6c9-41d7-88c0-7e6fb79029b9</p><p><b>status</b>: Unknown</p><p><b>category</b>: <span title="Codes:{http://medcomfhir.dk/ig/terminology/CodeSystem/medcom-careCommunication-categoryCodes examination-results}">Undersøgelsessvar</span></p><p><b>subject</b>: <a href="Patient-e1ada6b9-0782-4e18-b2e1-85ab642018a9.html">Peter Hansen (official) (no stated gender), DoB Unknown ( urn:oid:1.2.208.176.1.6.1.1#0703921VJ5)</a></p><blockquote><p><b>payload</b></p><p><b>DateTimeExtension</b>: 2025-09-29 09:00:00+0200</p><p><b>IdentifierExtension</b>: urn:uuid:1d881c60-609f-4dac-9b17-cac3959cd01d</p><p><b>PractitionerExtension</b>: <a href="PractitionerRole-b362049e-9f98-4192-af53-2409cc817560.html">PractitionerRole Sygeplejerske</a></p><p><b>ContactExtension</b>: <a href="tel:+4512345789">+4512345789</a></p><p><b>content</b>: Dette er en korrespondancemeddelelse med to erstatnings-CPR numre, af hver sin type.
Hilsen Michael, sygeplejerske.</p></blockquote></div>
        </text>
        <identifier>
          <value value="urn:uuid:eca85df4-e6c9-41d7-88c0-7e6fb79029b9"/>
        </identifier>
        <status value="unknown"/>
        <category>
          <coding>
            <system value="http://medcomfhir.dk/ig/terminology/CodeSystem/medcom-careCommunication-categoryCodes"/>
            <code value="examination-results"/>
          </coding>
        </category>
        <subject>
          <reference value="Patient/e1ada6b9-0782-4e18-b2e1-85ab642018a9"/>
        </subject>
        <payload>
          <extension url="http://medcomfhir.dk/ig/core/StructureDefinition/medcom-core-datetime-extension">
            <valueDateTime value="2025-09-29T09:00:00+02:00"/>
          </extension>
          <extension url="http://medcomfhir.dk/ig/core/StructureDefinition/medcom-core-identifier-extension">
            <valueIdentifier>
              <value value="urn:uuid:1d881c60-609f-4dac-9b17-cac3959cd01d"/>
              <assigner>
                <reference value="Organization/c20dccdc-4a01-4e06-b9f2-5246152794ab"/>
              </assigner>
            </valueIdentifier>
          </extension>
          <extension url="http://medcomfhir.dk/ig/core/StructureDefinition/medcom-core-practitioner-extension">
            <valueReference>
              <reference value="PractitionerRole/b362049e-9f98-4192-af53-2409cc817560"/>
            </valueReference>
          </extension>
          <extension url="http://medcomfhir.dk/ig/core/StructureDefinition/medcom-core-contact-extension">
            <valueContactPoint>
              <system value="phone"/>
              <value value="+4512345789"/>
            </valueContactPoint>
          </extension>
          <contentString value="Dette er en korrespondancemeddelelse med to erstatnings-CPR numre, af hver sin type.&#xA;Hilsen Michael, sygeplejerske."/>
        </payload>
      </Communication>
    </resource>
  </entry>
  <entry>
    <fullUrl value="https://medcomfhir.dk/ig/carecommunication/PractitionerRole/b362049e-9f98-4192-af53-2409cc817560"/>
    <resource>
      <PractitionerRole>
        <id value="b362049e-9f98-4192-af53-2409cc817560"/>
        <meta>
          <profile value="http://medcomfhir.dk/ig/core/StructureDefinition/medcom-core-practitionerrole"/>
        </meta>
        <text>
          <status value="generated"/><div xmlns="http://www.w3.org/1999/xhtml"><a name="PractitionerRole_b362049e-9f98-4192-af53-2409cc817560"> </a><p class="res-header-id"><b>Generated Narrative: PractitionerRole b362049e-9f98-4192-af53-2409cc817560</b></p><a name="b362049e-9f98-4192-af53-2409cc817560"> </a><a name="hcb362049e-9f98-4192-af53-2409cc817560"> </a><div style="display: inline-block; background-color: #d9e0e7; padding: 6px; margin: 4px; border: 1px solid #8da1b4; border-radius: 5px; line-height: 60%"><p style="margin-bottom: 0px"/><p style="margin-bottom: 0px">Profile: <a href="http://medcomfhir.dk/ig/core/3.0.0/StructureDefinition-medcom-core-practitionerrole.html">MedComCorePractitionerRole</a></p></div><p><b>practitioner</b>: <a href="Practitioner-ff5d0fe4-730a-4370-9775-1ff8bb033e26.html">Practitioner Michael Burns </a></p><p><b>code</b>: <span title="Codes:{http://medcomfhir.dk/ig/terminology/CodeSystem/medcom-core-PractitionerRolesSKSadministrativ sygeplejerske}">Sygeplejerske</span></p></div>
        </text>
        <practitioner>
          <reference value="Practitioner/ff5d0fe4-730a-4370-9775-1ff8bb033e26"/>
        </practitioner>
        <code>
          <coding>
            <system value="http://medcomfhir.dk/ig/terminology/CodeSystem/medcom-core-PractitionerRolesSKSadministrativ"/>
            <code value="sygeplejerske"/>
          </coding>
        </code>
      </PractitionerRole>
    </resource>
  </entry>
  <entry>
    <fullUrl value="https://medcomfhir.dk/ig/carecommunication/Practitioner/ff5d0fe4-730a-4370-9775-1ff8bb033e26"/>
    <resource>
      <Practitioner>
        <id value="ff5d0fe4-730a-4370-9775-1ff8bb033e26"/>
        <meta>
          <profile value="http://medcomfhir.dk/ig/core/StructureDefinition/medcom-core-practitioner"/>
        </meta>
        <text>
          <status value="generated"/><div xmlns="http://www.w3.org/1999/xhtml"><a name="Practitioner_ff5d0fe4-730a-4370-9775-1ff8bb033e26"> </a><p class="res-header-id"><b>Generated Narrative: Practitioner ff5d0fe4-730a-4370-9775-1ff8bb033e26</b></p><a name="ff5d0fe4-730a-4370-9775-1ff8bb033e26"> </a><a name="hcff5d0fe4-730a-4370-9775-1ff8bb033e26"> </a><div style="display: inline-block; background-color: #d9e0e7; padding: 6px; margin: 4px; border: 1px solid #8da1b4; border-radius: 5px; line-height: 60%"><p style="margin-bottom: 0px"/><p style="margin-bottom: 0px">Profile: <a href="http://medcomfhir.dk/ig/core/3.0.0/StructureDefinition-medcom-core-practitioner.html">MedComCorePractitioner</a></p></div><p><b>name</b>: Michael Burns </p></div>
        </text>
        <name>
          <family value="Burns"/>
          <given value="Michael"/>
        </name>
      </Practitioner>
    </resource>
  </entry>
  <entry>
    <fullUrl value="https://medcomfhir.dk/ig/carecommunication/Organization/c20dccdc-4a01-4e06-b9f2-5246152794ab"/>
    <resource>
      <Organization>
        <id value="c20dccdc-4a01-4e06-b9f2-5246152794ab"/>
        <meta>
          <profile value="http://medcomfhir.dk/ig/messaging/StructureDefinition/medcom-messaging-organization"/>
        </meta>
        <text>
          <status value="generated"/><div xmlns="http://www.w3.org/1999/xhtml"><a name="Organization_c20dccdc-4a01-4e06-b9f2-5246152794ab"> </a><p class="res-header-id"><b>Generated Narrative: Organization c20dccdc-4a01-4e06-b9f2-5246152794ab</b></p><a name="c20dccdc-4a01-4e06-b9f2-5246152794ab"> </a><a name="hcc20dccdc-4a01-4e06-b9f2-5246152794ab"> </a><div style="display: inline-block; background-color: #d9e0e7; padding: 6px; margin: 4px; border: 1px solid #8da1b4; border-radius: 5px; line-height: 60%"><p style="margin-bottom: 0px"/><p style="margin-bottom: 0px">Profile: <a href="http://medcomfhir.dk/ig/messaging/4.0.0/StructureDefinition-medcom-messaging-organization.html">MedComMessagingOrganization</a></p></div><p><b>identifier</b>: <code>https://www.gs1.org/gln</code>/5790000120314, <code>urn:oid:1.2.208.176.1.1</code>/325371000016006</p><p><b>name</b>: MedCom FDIS91</p></div>
        </text>
        <identifier>
          <system value="https://www.gs1.org/gln"/>
          <value value="5790000120314"/>
        </identifier>
        <identifier>
          <system value="urn:oid:1.2.208.176.1.1"/>
          <value value="325371000016006"/>
        </identifier>
        <name value="MedCom FDIS91"/>
      </Organization>
    </resource>
  </entry>
  <entry>
    <fullUrl value="https://medcomfhir.dk/ig/carecommunication/Organization/2af0aac8-cfe4-4fe9-865f-1542f02f5470"/>
    <resource>
      <Organization>
        <id value="2af0aac8-cfe4-4fe9-865f-1542f02f5470"/>
        <meta>
          <profile value="http://medcomfhir.dk/ig/messaging/StructureDefinition/medcom-messaging-organization"/>
        </meta>
        <text>
          <status value="generated"/><div xmlns="http://www.w3.org/1999/xhtml"><a name="Organization_2af0aac8-cfe4-4fe9-865f-1542f02f5470"> </a><p class="res-header-id"><b>Generated Narrative: Organization 2af0aac8-cfe4-4fe9-865f-1542f02f5470</b></p><a name="2af0aac8-cfe4-4fe9-865f-1542f02f5470"> </a><a name="hc2af0aac8-cfe4-4fe9-865f-1542f02f5470"> </a><div style="display: inline-block; background-color: #d9e0e7; padding: 6px; margin: 4px; border: 1px solid #8da1b4; border-radius: 5px; line-height: 60%"><p style="margin-bottom: 0px"/><p style="margin-bottom: 0px">Profile: <a href="http://medcomfhir.dk/ig/messaging/4.0.0/StructureDefinition-medcom-messaging-organization.html">MedComMessagingOrganization</a></p></div><p><b>identifier</b>: <code>https://www.gs1.org/gln</code>/5790000121526, <code>urn:oid:1.2.208.176.1.1</code>/325251000016005</p><p><b>name</b>: MedCom XDIS91</p></div>
        </text>
        <identifier>
          <system value="https://www.gs1.org/gln"/>
          <value value="5790000121526"/>
        </identifier>
        <identifier>
          <system value="urn:oid:1.2.208.176.1.1"/>
          <value value="325251000016005"/>
        </identifier>
        <name value="MedCom XDIS91"/>
      </Organization>
    </resource>
  </entry>
  <entry>
    <fullUrl value="https://medcomfhir.dk/ig/carecommunication/Provenance/792ec529-aa61-44cc-97f9-b9a5b446b4fe"/>
    <resource>
      <Provenance>
        <id value="792ec529-aa61-44cc-97f9-b9a5b446b4fe"/>
        <meta>
          <profile value="http://medcomfhir.dk/ig/carecommunication/StructureDefinition/medcom-careCommunication-provenance"/>
        </meta>
        <text>
          <status value="generated"/><div xmlns="http://www.w3.org/1999/xhtml"><a name="Provenance_792ec529-aa61-44cc-97f9-b9a5b446b4fe"> </a><p class="res-header-id"><b>Generated Narrative: Provenance 792ec529-aa61-44cc-97f9-b9a5b446b4fe</b></p><a name="792ec529-aa61-44cc-97f9-b9a5b446b4fe"> </a><a name="hc792ec529-aa61-44cc-97f9-b9a5b446b4fe"> </a><div style="display: inline-block; background-color: #d9e0e7; padding: 6px; margin: 4px; border: 1px solid #8da1b4; border-radius: 5px; line-height: 60%"><p style="margin-bottom: 0px"/><p style="margin-bottom: 0px">Profile: <a href="http://medcomfhir.dk/ig/carecommunication/5.0.0/StructureDefinition-medcom-careCommunication-provenance.html">MedComCareCommunicationProvenance</a></p></div><p>Provenance for <a href="MessageHeader-73893146-ff6f-4455-99c3-9126c74d16a2.html">MessageHeader: event[x] = Care Communication Message (MedComMessagingEventCodes#care-communication-message); definition = http://medcomfhir.dk/ig/messagedefinitions/MessageDefinition/MedComCareCommunicationMessageDefinition|5.0</a></p><p>Summary</p><table class="grid"><tr><td>Occurrence</td><td>2025-09-29 09:00:00+0200</td></tr><tr><td>Recorded</td><td>2025-09-29 09:00:00+0200</td></tr><tr><td>Activity</td><td><span title="Codes:{http://medcomfhir.dk/ig/terminology/CodeSystem/medcom-messaging-activityCodes new-message}">A new message has been sent</span></td></tr></table><p><b>Agents</b></p><table class="grid"><tr><td><b>who</b></td></tr><tr><td><a href="Organization-c20dccdc-4a01-4e06-b9f2-5246152794ab.html">Organization MedCom FDIS91</a></td></tr></table></div>
        </text>
        <target>
          <reference value="MessageHeader/73893146-ff6f-4455-99c3-9126c74d16a2"/>
        </target>
        <occurredDateTime value="2025-09-29T09:00:00+02:00"/>
        <recorded value="2025-09-29T09:00:00+02:00"/>
        <activity>
          <coding>
            <system value="http://medcomfhir.dk/ig/terminology/CodeSystem/medcom-messaging-activityCodes"/>
            <code value="new-message"/>
          </coding>
        </activity>
        <agent>
          <who>
            <reference value="Organization/c20dccdc-4a01-4e06-b9f2-5246152794ab"/>
          </who>
        </agent>
        <entity>
          <role value="source"/>
          <what>
            <identifier>
              <value value="urn:uuid:1d881c60-609f-4dac-9b17-cac3959cd01d"/>
            </identifier>
          </what>
        </entity>
      </Provenance>
    </resource>
  </entry>
</Bundle>