{
  "resourceType" : "Bundle",
  "id" : "a4630688-dc6b-4484-9ef7-b9a08148c407",
  "meta" : {
    "profile" : ["http://medcomfhir.dk/ig/conditionlist/StructureDefinition/medcom-conditionlist-bundle"]
  },
  "identifier" : {
    "system" : "urn:ietf:rfc:3986",
    "value" : "urn:uuid:229b156c-5d36-417a-9d71-ea5cb725ab40"
  },
  "type" : "document",
  "timestamp" : "2024-07-10T12:50:00+01:00",
  "entry" : [{
    "fullUrl" : "http://medcomfhir.dk/ig/conditionlist/Composition/2590fc0b-d6fb-4d7f-86fb-60b7474d59a5",
    "resource" : {
      "resourceType" : "Composition",
      "id" : "2590fc0b-d6fb-4d7f-86fb-60b7474d59a5",
      "meta" : {
        "profile" : ["http://medcomfhir.dk/ig/conditionlist/StructureDefinition/medcom-conditionlist-composition"]
      },
      "language" : "da",
      "text" : {
        "status" : "generated",
        "div" : "<div xmlns=\"http://www.w3.org/1999/xhtml\" xml:lang=\"da\" lang=\"da\"><a name=\"Composition_2590fc0b-d6fb-4d7f-86fb-60b7474d59a5\"> </a><p class=\"res-header-id\"><b>Generated Narrative: Composition 2590fc0b-d6fb-4d7f-86fb-60b7474d59a5</b></p><a name=\"2590fc0b-d6fb-4d7f-86fb-60b7474d59a5\"> </a><a name=\"hc2590fc0b-d6fb-4d7f-86fb-60b7474d59a5\"> </a><a name=\"2590fc0b-d6fb-4d7f-86fb-60b7474d59a5-en-US\"> </a><div style=\"display: inline-block; background-color: #d9e0e7; padding: 6px; margin: 4px; border: 1px solid #8da1b4; border-radius: 5px; line-height: 60%\"><p style=\"margin-bottom: 0px\">Language: da</p><p style=\"margin-bottom: 0px\">Profile: <a href=\"StructureDefinition-medcom-conditionlist-composition.html\">MedComConditionListComposition</a></p></div><p><b>status</b>: Final</p><p><b>type</b>: <span title=\"Codes:{http://loinc.org 11450-4}\">Problem list - Reported</span></p><p><b>date</b>: 2024-07-10 12:50:00+0100</p><p><b>author</b>: <a href=\"Organization-465b576f-9620-4394-adc7-ff00a95971d1.html\">Organization MedCom Testcenter</a></p><p><b>title</b>: Diagnoseoversigt for 2509479989</p><p><b>confidentiality</b>: normal</p></div>"
      },
      "status" : "final",
      "type" : {
        "coding" : [{
          "system" : "http://loinc.org",
          "code" : "11450-4",
          "display" : "Problem list - Reported"
        }]
      },
      "subject" : {
        "reference" : "Patient/19bdc614-503b-481d-ae65-4040daf7060d"
      },
      "date" : "2024-07-10T12:50:00+01:00",
      "author" : [{
        "reference" : "Organization/465b576f-9620-4394-adc7-ff00a95971d1"
      }],
      "title" : "Diagnoseoversigt for 2509479989",
      "confidentiality" : "N",
      "section" : [{
        "text" : {
          "status" : "generated",
          "div" : "<div xmlns=\"http://www.w3.org/1999/xhtml\"><p class=\"res-header-id\"><b>Generated Narrative: Condition 5af29fb2-f724-4918-94b2-cfeb18e263ac</b></p><a name=\"5af29fb2-f724-4918-94b2-cfeb18e263ac\"></a><a name=\"hc5af29fb2-f724-4918-94b2-cfeb18e263ac\"> </a><a name=\"5af29fb2-f724-4918-94b2-cfeb18e263ac-en-US\"></a><p><b>category</b>: <span title=\"Codes:{http://snomed.info/sct 15240007}\">Current</span></p><p><b>code</b>: <span title=\"Codes:\">KOL</span></p><p><b>subject</b>: <a href=\"Patient-19bdc614-503b-481d-ae65-4040daf7060d.html\">Knut Odvar Test Mosebryggersen (official) Male, DoB: 1982-02-15 ( urn:oid:1.2.208.176.1.2#1502829995)</a></p><p><b>onset</b>: 2019-11-25</p><p><b>recordedDate</b>: 2020-03-15</p></div>"
        },
        "entry" : [{
          "reference" : "Condition/5af29fb2-f724-4918-94b2-cfeb18e263ac"
        }]
      }]
    }
  },
  {
    "fullUrl" : "http://medcomfhir.dk/ig/conditionlist/Patient/19bdc614-503b-481d-ae65-4040daf7060d",
    "resource" : {
      "resourceType" : "Patient",
      "id" : "19bdc614-503b-481d-ae65-4040daf7060d",
      "meta" : {
        "profile" : ["http://medcomfhir.dk/ig/document/StructureDefinition/medcom-document-patient"]
      },
      "text" : {
        "status" : "generated",
        "div" : "<div xmlns=\"http://www.w3.org/1999/xhtml\"><a name=\"Patient_19bdc614-503b-481d-ae65-4040daf7060d\"> </a><p class=\"res-header-id\"><b>Generated Narrative: Patient 19bdc614-503b-481d-ae65-4040daf7060d</b></p><a name=\"19bdc614-503b-481d-ae65-4040daf7060d\"> </a><a name=\"hc19bdc614-503b-481d-ae65-4040daf7060d\"> </a><a name=\"19bdc614-503b-481d-ae65-4040daf7060d-en-US\"> </a><div style=\"display: inline-block; background-color: #d9e0e7; padding: 6px; margin: 4px; border: 1px solid #8da1b4; border-radius: 5px; line-height: 60%\"><p style=\"margin-bottom: 0px\"/><p style=\"margin-bottom: 0px\">Profile: <a href=\"http://medcomfhir.dk/ig/document/1.0.1/StructureDefinition-medcom-document-patient.html\">MedComDocumentPatient</a></p></div><p style=\"border: 1px #661aff solid; background-color: #e6e6ff; padding: 10px;\">Knut Odvar Test Mosebryggersen (official) Male, DoB: 1982-02-15 ( urn:oid:1.2.208.176.1.2#1502829995)</p><hr/></div>"
      },
      "identifier" : [{
        "system" : "urn:oid:1.2.208.176.1.2",
        "value" : "1502829995"
      }],
      "name" : [{
        "use" : "official",
        "family" : "Mosebryggersen",
        "given" : ["Knut",
        "Odvar",
        "Test"]
      }],
      "gender" : "male",
      "birthDate" : "1982-02-15"
    }
  },
  {
    "fullUrl" : "http://medcomfhir.dk/ig/conditionlist/Organization/465b576f-9620-4394-adc7-ff00a95971d1",
    "resource" : {
      "resourceType" : "Organization",
      "id" : "465b576f-9620-4394-adc7-ff00a95971d1",
      "meta" : {
        "profile" : ["http://medcomfhir.dk/ig/conditionlist/StructureDefinition/medcom-conditionlist-organization"]
      },
      "text" : {
        "status" : "generated",
        "div" : "<div xmlns=\"http://www.w3.org/1999/xhtml\"><a name=\"Organization_465b576f-9620-4394-adc7-ff00a95971d1\"> </a><p class=\"res-header-id\"><b>Generated Narrative: Organization 465b576f-9620-4394-adc7-ff00a95971d1</b></p><a name=\"465b576f-9620-4394-adc7-ff00a95971d1\"> </a><a name=\"hc465b576f-9620-4394-adc7-ff00a95971d1\"> </a><a name=\"465b576f-9620-4394-adc7-ff00a95971d1-en-US\"> </a><div style=\"display: inline-block; background-color: #d9e0e7; padding: 6px; margin: 4px; border: 1px solid #8da1b4; border-radius: 5px; line-height: 60%\"><p style=\"margin-bottom: 0px\"/><p style=\"margin-bottom: 0px\">Profile: <a href=\"StructureDefinition-medcom-conditionlist-organization.html\">MedComConditionListOrganization</a></p></div><p><b>identifier</b>: <code>urn:oid:1.2.208.176.1.1</code>/325381000016008</p><p><b>name</b>: MedCom Testcenter</p></div>"
      },
      "identifier" : [{
        "system" : "urn:oid:1.2.208.176.1.1",
        "value" : "325381000016008"
      }],
      "name" : "MedCom Testcenter"
    }
  },
  {
    "fullUrl" : "http://medcomfhir.dk/ig/conditionlist/Condition/5af29fb2-f724-4918-94b2-cfeb18e263ac",
    "resource" : {
      "resourceType" : "Condition",
      "id" : "5af29fb2-f724-4918-94b2-cfeb18e263ac",
      "meta" : {
        "profile" : ["http://medcomfhir.dk/ig/conditionlist/StructureDefinition/medcom-conditionlist-condition"]
      },
      "text" : {
        "status" : "generated",
        "div" : "<div xmlns=\"http://www.w3.org/1999/xhtml\"><a name=\"Condition_5af29fb2-f724-4918-94b2-cfeb18e263ac\"> </a><p class=\"res-header-id\"><b>Generated Narrative: Condition 5af29fb2-f724-4918-94b2-cfeb18e263ac</b></p><a name=\"5af29fb2-f724-4918-94b2-cfeb18e263ac\"> </a><a name=\"hc5af29fb2-f724-4918-94b2-cfeb18e263ac\"> </a><a name=\"5af29fb2-f724-4918-94b2-cfeb18e263ac-en-US\"> </a><div style=\"display: inline-block; background-color: #d9e0e7; padding: 6px; margin: 4px; border: 1px solid #8da1b4; border-radius: 5px; line-height: 60%\"><p style=\"margin-bottom: 0px\"/><p style=\"margin-bottom: 0px\">Profile: <a href=\"StructureDefinition-medcom-conditionlist-condition.html\">MedComConditionListCondition</a></p></div><p><b>category</b>: <span title=\"Codes:{http://snomed.info/sct 15240007}\">Current</span></p><p><b>code</b>: <span title=\"Codes:\">KOL</span></p><p><b>subject</b>: <a href=\"Patient-19bdc614-503b-481d-ae65-4040daf7060d.html\">Knut Odvar Test Mosebryggersen (official) Male, DoB: 1982-02-15 ( urn:oid:1.2.208.176.1.2#1502829995)</a></p><p><b>onset</b>: 2019-11-25</p><p><b>recordedDate</b>: 2020-03-15</p></div>"
      },
      "category" : [{
        "coding" : [{
          "system" : "http://snomed.info/sct",
          "code" : "15240007"
        }]
      }],
      "code" : {
        "text" : "KOL"
      },
      "subject" : {
        "reference" : "Patient/19bdc614-503b-481d-ae65-4040daf7060d"
      },
      "onsetDateTime" : "2019-11-25",
      "recordedDate" : "2020-03-15"
    }
  }]
}