<?xml version="1.0" encoding="UTF-8"?>

<Bundle xmlns="http://hl7.org/fhir">
  <id value="23d8ece4-7cff-47c1-9680-571377c6ea74"/>
  <meta>
    <profile value="http://medcomfhir.dk/ig/conditionlist/StructureDefinition/medcom-conditionlist-bundle"/>
  </meta>
  <identifier>
    <system value="urn:ietf:rfc:3986"/>
    <value value="urn:uuid:7c596b9a-112e-4386-ae71-5ecdd3ed7c50"/>
  </identifier>
  <type value="document"/>
  <timestamp value="2024-05-01T12:00:00+01:00"/>
  <entry>
    <fullUrl value="http://medcomfhir.dk/ig/conditionlist/Composition/72f2d9ad-cd73-4f63-950f-2ad178760a55"/>
    <resource>
      <Composition>
        <id value="72f2d9ad-cd73-4f63-950f-2ad178760a55"/>
        <meta>
          <profile value="http://medcomfhir.dk/ig/conditionlist/StructureDefinition/medcom-conditionlist-composition"/>
        </meta>
        <language value="da"/>
        <text>
          <status value="generated"/><div xmlns="http://www.w3.org/1999/xhtml" xml:lang="da" lang="da"><a name="Composition_72f2d9ad-cd73-4f63-950f-2ad178760a55"> </a><p class="res-header-id"><b>Generated Narrative: Composition 72f2d9ad-cd73-4f63-950f-2ad178760a55</b></p><a name="72f2d9ad-cd73-4f63-950f-2ad178760a55"> </a><a name="hc72f2d9ad-cd73-4f63-950f-2ad178760a55"> </a><a name="72f2d9ad-cd73-4f63-950f-2ad178760a55-en-US"> </a><div style="display: inline-block; background-color: #d9e0e7; padding: 6px; margin: 4px; border: 1px solid #8da1b4; border-radius: 5px; line-height: 60%"><p style="margin-bottom: 0px">Language: da</p><p style="margin-bottom: 0px">Profile: <a href="StructureDefinition-medcom-conditionlist-composition.html">MedComConditionListComposition</a></p></div><p><b>status</b>: Final</p><p><b>type</b>: <span title="Codes:{http://loinc.org 11450-4}">Problem list - Reported</span></p><p><b>date</b>: 2024-05-01 12:00:00+0100</p><p><b>author</b>: </p><ul><li><a href="Organization-fd3206c6-c265-49f9-82c3-8b4c96280403.html">Organization MedCom Testcenter</a></li><li><a href="Practitioner-1fcad31f-8967-4f49-b6af-7e64082e8fec.html">Practitioner Bo Test Vestergaard (official)</a></li></ul><p><b>title</b>: Diagnoseoversigt for 2509479989</p><p><b>confidentiality</b>: normal</p><h3>Attesters</h3><table class="grid"><tr><td style="display: none">-</td><td><b>Mode</b></td><td><b>Party</b></td></tr><tr><td style="display: none">*</td><td>Official</td><td><a href="Practitioner-1fcad31f-8967-4f49-b6af-7e64082e8fec.html">Practitioner Bo Test Vestergaard (official)</a></td></tr></table></div>
        </text>
        <status value="final"/>
        <type>
          <coding>
            <system value="http://loinc.org"/>
            <code value="11450-4"/>
            <display value="Problem list - Reported"/>
          </coding>
        </type>
        <subject>
          <reference value="Patient/69e475df-20c8-4f54-8cea-9843568205fd"/>
        </subject>
        <date value="2024-05-01T12:00:00+01:00"/>
        <author>
          <reference value="Organization/fd3206c6-c265-49f9-82c3-8b4c96280403"/>
        </author>
        <author>
          <reference value="Practitioner/1fcad31f-8967-4f49-b6af-7e64082e8fec"/>
        </author>
        <title value="Diagnoseoversigt for 2509479989"/>
        <confidentiality value="N"/>
        <attester>
          <mode value="official"/>
          <party>
            <reference value="Practitioner/1fcad31f-8967-4f49-b6af-7e64082e8fec"/>
          </party>
        </attester>
        <section>
          <text>
            <status value="generated"/><div xmlns="http://www.w3.org/1999/xhtml"><p class="res-header-id"><b>Generated Narrative: Condition 2f703d89-787d-418f-a804-b986aa181492</b></p><a name="2f703d89-787d-418f-a804-b986aa181492"></a><a name="hc2f703d89-787d-418f-a804-b986aa181492"> </a><a name="2f703d89-787d-418f-a804-b986aa181492-en-US"></a><p><b>category</b>: <span title="Codes:{http://terminology.hl7.org/CodeSystem/condition-category problem-list-item}">Problem List Item</span>, <span title="Codes:{http://snomed.info/sct 15240007}">Current</span></p><p><b>code</b>: <span title="Codes:{urn:oid:1.2.208.176.2.4.12 DE11}, {urn:oid:1.2.208.176.2.31 T90}">Type 2-diabetes</span></p><p><b>subject</b>: <a href="Patient-69e475df-20c8-4f54-8cea-9843568205fd.html">Elmer Test Hansen (official) Male, DoB: 1947-09-25 ( urn:oid:1.2.208.176.1.2#2509479989)</a></p><p><b>onset</b>: 2020-02-20</p><p><b>recordedDate</b>: 2023-03-15</p><p><b>note</b>: Patienten er særligt ramt af træthed grundet sygdommen.</p><p class="res-header-id"><b>Generated Narrative: Condition 9dd0e1c2-3c7d-423f-977c-29119c314fd1</b></p><a name="9dd0e1c2-3c7d-423f-977c-29119c314fd1"></a><a name="hc9dd0e1c2-3c7d-423f-977c-29119c314fd1"> </a><a name="9dd0e1c2-3c7d-423f-977c-29119c314fd1-en-US"></a><p><b>clinicalStatus</b>: <span title="Codes:">resolved</span></p><p><b>category</b>: <span title="Codes:{http://snomed.info/sct 723506003}">Resolved (qualifier value)</span>, <span title="Codes:{http://terminology.hl7.org/CodeSystem/condition-category encounter-diagnosis}">Encounter Diagnosis</span></p><p><b>code</b>: <span title="Codes:{urn:oid:1.2.208.176.2.4.12 DC43}, {urn:oid:1.2.208.176.2.31 S77}">Modermærkekræft</span></p><p><b>subject</b>: <a href="Patient-69e475df-20c8-4f54-8cea-9843568205fd.html">Elmer Test Hansen (official) Male, DoB: 1947-09-25 ( urn:oid:1.2.208.176.1.2#2509479989)</a></p><p><b>onset</b>: 2023-03-20</p><p><b>abatement</b>: 2023-06-07</p><p><b>recordedDate</b>: 2023-05-01</p><p><b>note</b>: Modermærkekræft på patientens venstre læg.</p><p class="res-header-id"><b>Generated Narrative: Condition f90a8472-6495-4865-be5d-fae6650a033e</b></p><a name="f90a8472-6495-4865-be5d-fae6650a033e"></a><a name="hcf90a8472-6495-4865-be5d-fae6650a033e"> </a><a name="f90a8472-6495-4865-be5d-fae6650a033e-en-US"></a><p><b>category</b>: <span title="Codes:{http://snomed.info/sct 15240007}">Current</span>, <span title="Codes:{http://terminology.hl7.org/CodeSystem/condition-category problem-list-item}">Problem List Item</span></p><p><b>code</b>: <span title="Codes:{urn:oid:1.2.208.176.2.4.12 DI109}, {urn:oid:1.2.208.176.2.31 K86}">Hypertensio arterialis essentialis</span></p><p><b>subject</b>: <a href="Patient-69e475df-20c8-4f54-8cea-9843568205fd.html">Elmer Test Hansen (official) Male, DoB: 1947-09-25 ( urn:oid:1.2.208.176.1.2#2509479989)</a></p><p><b>recordedDate</b>: 2024-01-17</p></div>
          </text>
          <entry>
            <reference value="Condition/2f703d89-787d-418f-a804-b986aa181492"/>
          </entry>
          <entry>
            <reference value="Condition/9dd0e1c2-3c7d-423f-977c-29119c314fd1"/>
          </entry>
          <entry>
            <reference value="Condition/f90a8472-6495-4865-be5d-fae6650a033e"/>
          </entry>
        </section>
      </Composition>
    </resource>
  </entry>
  <entry>
    <fullUrl value="http://medcomfhir.dk/ig/conditionlist/Patient/69e475df-20c8-4f54-8cea-9843568205fd"/>
    <resource>
      <Patient>
        <id value="69e475df-20c8-4f54-8cea-9843568205fd"/>
        <meta>
          <profile value="http://medcomfhir.dk/ig/document/StructureDefinition/medcom-document-patient"/>
        </meta>
        <text>
          <status value="generated"/><div xmlns="http://www.w3.org/1999/xhtml"><a name="Patient_69e475df-20c8-4f54-8cea-9843568205fd"> </a><p class="res-header-id"><b>Generated Narrative: Patient 69e475df-20c8-4f54-8cea-9843568205fd</b></p><a name="69e475df-20c8-4f54-8cea-9843568205fd"> </a><a name="hc69e475df-20c8-4f54-8cea-9843568205fd"> </a><a name="69e475df-20c8-4f54-8cea-9843568205fd-en-US"> </a><div style="display: inline-block; background-color: #d9e0e7; padding: 6px; margin: 4px; border: 1px solid #8da1b4; border-radius: 5px; line-height: 60%"><p style="margin-bottom: 0px"/><p style="margin-bottom: 0px">Profile: <a href="http://medcomfhir.dk/ig/document/1.0.1/StructureDefinition-medcom-document-patient.html">MedComDocumentPatient</a></p></div><p style="border: 1px #661aff solid; background-color: #e6e6ff; padding: 10px;">Elmer Test Hansen (official) Male, DoB: 1947-09-25 ( urn:oid:1.2.208.176.1.2#2509479989)</p><hr/></div>
        </text>
        <identifier>
          <system value="urn:oid:1.2.208.176.1.2"/>
          <value value="2509479989"/>
        </identifier>
        <name>
          <use value="official"/>
          <family value="Hansen"/>
          <given value="Elmer"/>
          <given value="Test"/>
        </name>
        <gender value="male"/>
        <birthDate value="1947-09-25"/>
      </Patient>
    </resource>
  </entry>
  <entry>
    <fullUrl value="http://medcomfhir.dk/ig/conditionlist/Organization/fd3206c6-c265-49f9-82c3-8b4c96280403"/>
    <resource>
      <Organization>
        <id value="fd3206c6-c265-49f9-82c3-8b4c96280403"/>
        <meta>
          <profile value="http://medcomfhir.dk/ig/conditionlist/StructureDefinition/medcom-conditionlist-organization"/>
        </meta>
        <text>
          <status value="generated"/><div xmlns="http://www.w3.org/1999/xhtml"><a name="Organization_fd3206c6-c265-49f9-82c3-8b4c96280403"> </a><p class="res-header-id"><b>Generated Narrative: Organization fd3206c6-c265-49f9-82c3-8b4c96280403</b></p><a name="fd3206c6-c265-49f9-82c3-8b4c96280403"> </a><a name="hcfd3206c6-c265-49f9-82c3-8b4c96280403"> </a><a name="fd3206c6-c265-49f9-82c3-8b4c96280403-en-US"> </a><div style="display: inline-block; background-color: #d9e0e7; padding: 6px; margin: 4px; border: 1px solid #8da1b4; border-radius: 5px; line-height: 60%"><p style="margin-bottom: 0px"/><p style="margin-bottom: 0px">Profile: <a href="StructureDefinition-medcom-conditionlist-organization.html">MedComConditionListOrganization</a></p></div><p><b>identifier</b>: <code>urn:oid:1.2.208.176.1.1</code>/325381000016008, <code>urn:oid:1.2.208.176.1.4</code>/091034</p><p><b>name</b>: MedCom Testcenter</p></div>
        </text>
        <identifier>
          <system value="urn:oid:1.2.208.176.1.1"/>
          <value value="325381000016008"/>
        </identifier>
        <identifier>
          <system value="urn:oid:1.2.208.176.1.4"/>
          <value value="091034"/>
        </identifier>
        <name value="MedCom Testcenter"/>
      </Organization>
    </resource>
  </entry>
  <entry>
    <fullUrl value="http://medcomfhir.dk/ig/conditionlist/Practitioner/1fcad31f-8967-4f49-b6af-7e64082e8fec"/>
    <resource>
      <Practitioner>
        <id value="1fcad31f-8967-4f49-b6af-7e64082e8fec"/>
        <meta>
          <profile value="http://medcomfhir.dk/ig/document/StructureDefinition/medcom-document-practitioner"/>
        </meta>
        <text>
          <status value="generated"/><div xmlns="http://www.w3.org/1999/xhtml"><a name="Practitioner_1fcad31f-8967-4f49-b6af-7e64082e8fec"> </a><p class="res-header-id"><b>Generated Narrative: Practitioner 1fcad31f-8967-4f49-b6af-7e64082e8fec</b></p><a name="1fcad31f-8967-4f49-b6af-7e64082e8fec"> </a><a name="hc1fcad31f-8967-4f49-b6af-7e64082e8fec"> </a><a name="1fcad31f-8967-4f49-b6af-7e64082e8fec-en-US"> </a><div style="display: inline-block; background-color: #d9e0e7; padding: 6px; margin: 4px; border: 1px solid #8da1b4; border-radius: 5px; line-height: 60%"><p style="margin-bottom: 0px"/><p style="margin-bottom: 0px">Profile: <a href="http://medcomfhir.dk/ig/document/1.0.1/StructureDefinition-medcom-document-practitioner.html">MedComDocumentPractitioner</a></p></div><p><b>name</b>: Bo Test Vestergaard (Official)</p></div>
        </text>
        <name>
          <use value="official"/>
          <family value="Vestergaard"/>
          <given value="Bo"/>
          <given value="Test"/>
        </name>
      </Practitioner>
    </resource>
  </entry>
  <entry>
    <fullUrl value="http://medcomfhir.dk/ig/conditionlist/Condition/2f703d89-787d-418f-a804-b986aa181492"/>
    <resource>
      <Condition>
        <id value="2f703d89-787d-418f-a804-b986aa181492"/>
        <meta>
          <profile value="http://medcomfhir.dk/ig/conditionlist/StructureDefinition/medcom-conditionlist-condition"/>
        </meta>
        <text>
          <status value="generated"/><div xmlns="http://www.w3.org/1999/xhtml"><a name="Condition_2f703d89-787d-418f-a804-b986aa181492"> </a><p class="res-header-id"><b>Generated Narrative: Condition 2f703d89-787d-418f-a804-b986aa181492</b></p><a name="2f703d89-787d-418f-a804-b986aa181492"> </a><a name="hc2f703d89-787d-418f-a804-b986aa181492"> </a><a name="2f703d89-787d-418f-a804-b986aa181492-en-US"> </a><div style="display: inline-block; background-color: #d9e0e7; padding: 6px; margin: 4px; border: 1px solid #8da1b4; border-radius: 5px; line-height: 60%"><p style="margin-bottom: 0px"/><p style="margin-bottom: 0px">Profile: <a href="StructureDefinition-medcom-conditionlist-condition.html">MedComConditionListCondition</a></p></div><p><b>category</b>: <span title="Codes:{http://terminology.hl7.org/CodeSystem/condition-category problem-list-item}">Problem List Item</span>, <span title="Codes:{http://snomed.info/sct 15240007}">Current</span></p><p><b>code</b>: <span title="Codes:{urn:oid:1.2.208.176.2.4.12 DE11}, {urn:oid:1.2.208.176.2.31 T90}">Type 2-diabetes</span></p><p><b>subject</b>: <a href="Patient-69e475df-20c8-4f54-8cea-9843568205fd.html">Elmer Test Hansen (official) Male, DoB: 1947-09-25 ( urn:oid:1.2.208.176.1.2#2509479989)</a></p><p><b>onset</b>: 2020-02-20</p><p><b>recordedDate</b>: 2023-03-15</p><p><b>note</b>: Patienten er særligt ramt af træthed grundet sygdommen.</p></div>
        </text>
        <category>
          <coding>
            <system value="http://terminology.hl7.org/CodeSystem/condition-category"/>
            <code value="problem-list-item"/>
          </coding>
        </category>
        <category>
          <coding>
            <system value="http://snomed.info/sct"/>
            <code value="15240007"/>
          </coding>
        </category>
        <code>
          <coding>
            <system value="urn:oid:1.2.208.176.2.4.12"/>
            <code value="DE11"/>
            <display value="Type 2-diabetes"/>
          </coding>
          <coding>
            <system value="urn:oid:1.2.208.176.2.31"/>
            <code value="T90"/>
            <display value="Diabetes type 2"/>
          </coding>
          <text value="Type 2-diabetes"/>
        </code>
        <subject>
          <reference value="Patient/69e475df-20c8-4f54-8cea-9843568205fd"/>
        </subject>
        <onsetDateTime value="2020-02-20"/>
        <recordedDate value="2023-03-15"/>
        <note>
          <text value="Patienten er særligt ramt af træthed grundet sygdommen."/>
        </note>
      </Condition>
    </resource>
  </entry>
  <entry>
    <fullUrl value="http://medcomfhir.dk/ig/conditionlist/Condition/9dd0e1c2-3c7d-423f-977c-29119c314fd1"/>
    <resource>
      <Condition>
        <id value="9dd0e1c2-3c7d-423f-977c-29119c314fd1"/>
        <meta>
          <profile value="http://medcomfhir.dk/ig/conditionlist/StructureDefinition/medcom-conditionlist-condition"/>
        </meta>
        <text>
          <status value="generated"/><div xmlns="http://www.w3.org/1999/xhtml"><a name="Condition_9dd0e1c2-3c7d-423f-977c-29119c314fd1"> </a><p class="res-header-id"><b>Generated Narrative: Condition 9dd0e1c2-3c7d-423f-977c-29119c314fd1</b></p><a name="9dd0e1c2-3c7d-423f-977c-29119c314fd1"> </a><a name="hc9dd0e1c2-3c7d-423f-977c-29119c314fd1"> </a><a name="9dd0e1c2-3c7d-423f-977c-29119c314fd1-en-US"> </a><div style="display: inline-block; background-color: #d9e0e7; padding: 6px; margin: 4px; border: 1px solid #8da1b4; border-radius: 5px; line-height: 60%"><p style="margin-bottom: 0px"/><p style="margin-bottom: 0px">Profile: <a href="StructureDefinition-medcom-conditionlist-condition.html">MedComConditionListCondition</a></p></div><p><b>clinicalStatus</b>: <span title="Codes:{http://terminology.hl7.org/CodeSystem/condition-clinical resolved}">Resolved</span></p><p><b>category</b>: <span title="Codes:{http://snomed.info/sct 723506003}">Resolved (qualifier value)</span>, <span title="Codes:{http://terminology.hl7.org/CodeSystem/condition-category encounter-diagnosis}">Encounter Diagnosis</span></p><p><b>code</b>: <span title="Codes:{urn:oid:1.2.208.176.2.4.12 DC43}, {urn:oid:1.2.208.176.2.31 S77}">Modermærkekræft</span></p><p><b>subject</b>: <a href="Patient-69e475df-20c8-4f54-8cea-9843568205fd.html">Elmer Test Hansen (official) Male, DoB: 1947-09-25 ( urn:oid:1.2.208.176.1.2#2509479989)</a></p><p><b>onset</b>: 2023-03-20</p><p><b>abatement</b>: 2023-06-07</p><p><b>recordedDate</b>: 2023-05-01</p><p><b>note</b>: Modermærkekræft på patientens venstre læg.</p></div>
        </text>
        <clinicalStatus>
          <coding>
            <system value="http://terminology.hl7.org/CodeSystem/condition-clinical"/>
            <code value="resolved"/>
          </coding>
        </clinicalStatus>
        <category>
          <coding>
            <system value="http://snomed.info/sct"/>
            <code value="723506003"/>
          </coding>
        </category>
        <category>
          <coding>
            <system value="http://terminology.hl7.org/CodeSystem/condition-category"/>
            <code value="encounter-diagnosis"/>
          </coding>
        </category>
        <code>
          <coding>
            <system value="urn:oid:1.2.208.176.2.4.12"/>
            <code value="DC43"/>
            <display value="Modermærkekræft i huden"/>
          </coding>
          <coding>
            <system value="urn:oid:1.2.208.176.2.31"/>
            <code value="S77"/>
            <display value="Hudkræft"/>
          </coding>
          <text value="Modermærkekræft"/>
        </code>
        <subject>
          <reference value="Patient/69e475df-20c8-4f54-8cea-9843568205fd"/>
        </subject>
        <onsetDateTime value="2023-03-20"/>
        <abatementDateTime value="2023-06-07"/>
        <recordedDate value="2023-05-01"/>
        <note>
          <text value="Modermærkekræft på patientens venstre læg."/>
        </note>
      </Condition>
    </resource>
  </entry>
  <entry>
    <fullUrl value="http://medcomfhir.dk/ig/conditionlist/Condition/f90a8472-6495-4865-be5d-fae6650a033e"/>
    <resource>
      <Condition>
        <id value="f90a8472-6495-4865-be5d-fae6650a033e"/>
        <meta>
          <profile value="http://medcomfhir.dk/ig/conditionlist/StructureDefinition/medcom-conditionlist-condition"/>
        </meta>
        <text>
          <status value="generated"/><div xmlns="http://www.w3.org/1999/xhtml"><a name="Condition_f90a8472-6495-4865-be5d-fae6650a033e"> </a><p class="res-header-id"><b>Generated Narrative: Condition f90a8472-6495-4865-be5d-fae6650a033e</b></p><a name="f90a8472-6495-4865-be5d-fae6650a033e"> </a><a name="hcf90a8472-6495-4865-be5d-fae6650a033e"> </a><a name="f90a8472-6495-4865-be5d-fae6650a033e-en-US"> </a><div style="display: inline-block; background-color: #d9e0e7; padding: 6px; margin: 4px; border: 1px solid #8da1b4; border-radius: 5px; line-height: 60%"><p style="margin-bottom: 0px"/><p style="margin-bottom: 0px">Profile: <a href="StructureDefinition-medcom-conditionlist-condition.html">MedComConditionListCondition</a></p></div><p><b>category</b>: <span title="Codes:{http://snomed.info/sct 15240007}">Current</span>, <span title="Codes:{http://terminology.hl7.org/CodeSystem/condition-category problem-list-item}">Problem List Item</span></p><p><b>code</b>: <span title="Codes:{urn:oid:1.2.208.176.2.4.12 DI109}, {urn:oid:1.2.208.176.2.31 K86}">Hypertensio arterialis essentialis</span></p><p><b>subject</b>: <a href="Patient-69e475df-20c8-4f54-8cea-9843568205fd.html">Elmer Test Hansen (official) Male, DoB: 1947-09-25 ( urn:oid:1.2.208.176.1.2#2509479989)</a></p><p><b>recordedDate</b>: 2024-01-17</p></div>
        </text>
        <category>
          <coding>
            <system value="http://snomed.info/sct"/>
            <code value="15240007"/>
          </coding>
        </category>
        <category>
          <coding>
            <system value="http://terminology.hl7.org/CodeSystem/condition-category"/>
            <code value="problem-list-item"/>
          </coding>
        </category>
        <code>
          <coding>
            <system value="urn:oid:1.2.208.176.2.4.12"/>
            <code value="DI109"/>
            <display value="Essentiel Hypertension"/>
          </coding>
          <coding>
            <system value="urn:oid:1.2.208.176.2.31"/>
            <code value="K86"/>
            <display value="Ukompliceret Hypertension"/>
          </coding>
          <text value="Hypertensio arterialis essentialis"/>
        </code>
        <subject>
          <reference value="Patient/69e475df-20c8-4f54-8cea-9843568205fd"/>
        </subject>
        <recordedDate value="2024-01-17"/>
      </Condition>
    </resource>
  </entry>
</Bundle>