{
  "resourceType" : "Bundle",
  "id" : "23d8ece4-7cff-47c1-9680-571377c6ea74",
  "meta" : {
    "profile" : ["http://medcomfhir.dk/ig/conditionlist/StructureDefinition/medcom-conditionlist-bundle"]
  },
  "identifier" : {
    "system" : "urn:ietf:rfc:3986",
    "value" : "urn:uuid:7c596b9a-112e-4386-ae71-5ecdd3ed7c50"
  },
  "type" : "document",
  "timestamp" : "2024-05-01T12:00:00+01:00",
  "entry" : [{
    "fullUrl" : "http://medcomfhir.dk/ig/conditionlist/Composition/72f2d9ad-cd73-4f63-950f-2ad178760a55",
    "resource" : {
      "resourceType" : "Composition",
      "id" : "72f2d9ad-cd73-4f63-950f-2ad178760a55",
      "meta" : {
        "profile" : ["http://medcomfhir.dk/ig/conditionlist/StructureDefinition/medcom-conditionlist-composition"]
      },
      "language" : "da",
      "text" : {
        "status" : "generated",
        "div" : "<div xmlns=\"http://www.w3.org/1999/xhtml\" xml:lang=\"da\" lang=\"da\"><a name=\"Composition_72f2d9ad-cd73-4f63-950f-2ad178760a55\"> </a><p class=\"res-header-id\"><b>Generated Narrative: Composition 72f2d9ad-cd73-4f63-950f-2ad178760a55</b></p><a name=\"72f2d9ad-cd73-4f63-950f-2ad178760a55\"> </a><a name=\"hc72f2d9ad-cd73-4f63-950f-2ad178760a55\"> </a><a name=\"72f2d9ad-cd73-4f63-950f-2ad178760a55-en-US\"> </a><div style=\"display: inline-block; background-color: #d9e0e7; padding: 6px; margin: 4px; border: 1px solid #8da1b4; border-radius: 5px; line-height: 60%\"><p style=\"margin-bottom: 0px\">Language: da</p><p style=\"margin-bottom: 0px\">Profile: <a href=\"StructureDefinition-medcom-conditionlist-composition.html\">MedComConditionListComposition</a></p></div><p><b>status</b>: Final</p><p><b>type</b>: <span title=\"Codes:{http://loinc.org 11450-4}\">Problem list - Reported</span></p><p><b>date</b>: 2024-05-01 12:00:00+0100</p><p><b>author</b>: </p><ul><li><a href=\"Organization-fd3206c6-c265-49f9-82c3-8b4c96280403.html\">Organization MedCom Testcenter</a></li><li><a href=\"Practitioner-1fcad31f-8967-4f49-b6af-7e64082e8fec.html\">Practitioner Bo Test Vestergaard (official)</a></li></ul><p><b>title</b>: Diagnoseoversigt for 2509479989</p><p><b>confidentiality</b>: normal</p><h3>Attesters</h3><table class=\"grid\"><tr><td style=\"display: none\">-</td><td><b>Mode</b></td><td><b>Party</b></td></tr><tr><td style=\"display: none\">*</td><td>Official</td><td><a href=\"Practitioner-1fcad31f-8967-4f49-b6af-7e64082e8fec.html\">Practitioner Bo Test Vestergaard (official)</a></td></tr></table></div>"
      },
      "status" : "final",
      "type" : {
        "coding" : [{
          "system" : "http://loinc.org",
          "code" : "11450-4",
          "display" : "Problem list - Reported"
        }]
      },
      "subject" : {
        "reference" : "Patient/69e475df-20c8-4f54-8cea-9843568205fd"
      },
      "date" : "2024-05-01T12:00:00+01:00",
      "author" : [{
        "reference" : "Organization/fd3206c6-c265-49f9-82c3-8b4c96280403"
      },
      {
        "reference" : "Practitioner/1fcad31f-8967-4f49-b6af-7e64082e8fec"
      }],
      "title" : "Diagnoseoversigt for 2509479989",
      "confidentiality" : "N",
      "attester" : [{
        "mode" : "official",
        "party" : {
          "reference" : "Practitioner/1fcad31f-8967-4f49-b6af-7e64082e8fec"
        }
      }],
      "section" : [{
        "text" : {
          "status" : "generated",
          "div" : "<div xmlns=\"http://www.w3.org/1999/xhtml\"><p class=\"res-header-id\"><b>Generated Narrative: Condition 2f703d89-787d-418f-a804-b986aa181492</b></p><a name=\"2f703d89-787d-418f-a804-b986aa181492\"></a><a name=\"hc2f703d89-787d-418f-a804-b986aa181492\"> </a><a name=\"2f703d89-787d-418f-a804-b986aa181492-en-US\"></a><p><b>category</b>: <span title=\"Codes:{http://terminology.hl7.org/CodeSystem/condition-category problem-list-item}\">Problem List Item</span>, <span title=\"Codes:{http://snomed.info/sct 15240007}\">Current</span></p><p><b>code</b>: <span title=\"Codes:{urn:oid:1.2.208.176.2.4.12 DE11}, {urn:oid:1.2.208.176.2.31 T90}\">Type 2-diabetes</span></p><p><b>subject</b>: <a href=\"Patient-69e475df-20c8-4f54-8cea-9843568205fd.html\">Elmer Test Hansen (official) Male, DoB: 1947-09-25 ( urn:oid:1.2.208.176.1.2#2509479989)</a></p><p><b>onset</b>: 2020-02-20</p><p><b>recordedDate</b>: 2023-03-15</p><p><b>note</b>: Patienten er særligt ramt af træthed grundet sygdommen.</p><p class=\"res-header-id\"><b>Generated Narrative: Condition 9dd0e1c2-3c7d-423f-977c-29119c314fd1</b></p><a name=\"9dd0e1c2-3c7d-423f-977c-29119c314fd1\"></a><a name=\"hc9dd0e1c2-3c7d-423f-977c-29119c314fd1\"> </a><a name=\"9dd0e1c2-3c7d-423f-977c-29119c314fd1-en-US\"></a><p><b>clinicalStatus</b>: <span title=\"Codes:\">resolved</span></p><p><b>category</b>: <span title=\"Codes:{http://snomed.info/sct 723506003}\">Resolved (qualifier value)</span>, <span title=\"Codes:{http://terminology.hl7.org/CodeSystem/condition-category encounter-diagnosis}\">Encounter Diagnosis</span></p><p><b>code</b>: <span title=\"Codes:{urn:oid:1.2.208.176.2.4.12 DC43}, {urn:oid:1.2.208.176.2.31 S77}\">Modermærkekræft</span></p><p><b>subject</b>: <a href=\"Patient-69e475df-20c8-4f54-8cea-9843568205fd.html\">Elmer Test Hansen (official) Male, DoB: 1947-09-25 ( urn:oid:1.2.208.176.1.2#2509479989)</a></p><p><b>onset</b>: 2023-03-20</p><p><b>abatement</b>: 2023-06-07</p><p><b>recordedDate</b>: 2023-05-01</p><p><b>note</b>: Modermærkekræft på patientens venstre læg.</p><p class=\"res-header-id\"><b>Generated Narrative: Condition f90a8472-6495-4865-be5d-fae6650a033e</b></p><a name=\"f90a8472-6495-4865-be5d-fae6650a033e\"></a><a name=\"hcf90a8472-6495-4865-be5d-fae6650a033e\"> </a><a name=\"f90a8472-6495-4865-be5d-fae6650a033e-en-US\"></a><p><b>category</b>: <span title=\"Codes:{http://snomed.info/sct 15240007}\">Current</span>, <span title=\"Codes:{http://terminology.hl7.org/CodeSystem/condition-category problem-list-item}\">Problem List Item</span></p><p><b>code</b>: <span title=\"Codes:{urn:oid:1.2.208.176.2.4.12 DI109}, {urn:oid:1.2.208.176.2.31 K86}\">Hypertensio arterialis essentialis</span></p><p><b>subject</b>: <a href=\"Patient-69e475df-20c8-4f54-8cea-9843568205fd.html\">Elmer Test Hansen (official) Male, DoB: 1947-09-25 ( urn:oid:1.2.208.176.1.2#2509479989)</a></p><p><b>recordedDate</b>: 2024-01-17</p></div>"
        },
        "entry" : [{
          "reference" : "Condition/2f703d89-787d-418f-a804-b986aa181492"
        },
        {
          "reference" : "Condition/9dd0e1c2-3c7d-423f-977c-29119c314fd1"
        },
        {
          "reference" : "Condition/f90a8472-6495-4865-be5d-fae6650a033e"
        }]
      }]
    }
  },
  {
    "fullUrl" : "http://medcomfhir.dk/ig/conditionlist/Patient/69e475df-20c8-4f54-8cea-9843568205fd",
    "resource" : {
      "resourceType" : "Patient",
      "id" : "69e475df-20c8-4f54-8cea-9843568205fd",
      "meta" : {
        "profile" : ["http://medcomfhir.dk/ig/document/StructureDefinition/medcom-document-patient"]
      },
      "text" : {
        "status" : "generated",
        "div" : "<div xmlns=\"http://www.w3.org/1999/xhtml\"><a name=\"Patient_69e475df-20c8-4f54-8cea-9843568205fd\"> </a><p class=\"res-header-id\"><b>Generated Narrative: Patient 69e475df-20c8-4f54-8cea-9843568205fd</b></p><a name=\"69e475df-20c8-4f54-8cea-9843568205fd\"> </a><a name=\"hc69e475df-20c8-4f54-8cea-9843568205fd\"> </a><a name=\"69e475df-20c8-4f54-8cea-9843568205fd-en-US\"> </a><div style=\"display: inline-block; background-color: #d9e0e7; padding: 6px; margin: 4px; border: 1px solid #8da1b4; border-radius: 5px; line-height: 60%\"><p style=\"margin-bottom: 0px\"/><p style=\"margin-bottom: 0px\">Profile: <a href=\"http://medcomfhir.dk/ig/document/1.0.1/StructureDefinition-medcom-document-patient.html\">MedComDocumentPatient</a></p></div><p style=\"border: 1px #661aff solid; background-color: #e6e6ff; padding: 10px;\">Elmer Test Hansen (official) Male, DoB: 1947-09-25 ( urn:oid:1.2.208.176.1.2#2509479989)</p><hr/></div>"
      },
      "identifier" : [{
        "system" : "urn:oid:1.2.208.176.1.2",
        "value" : "2509479989"
      }],
      "name" : [{
        "use" : "official",
        "family" : "Hansen",
        "given" : ["Elmer",
        "Test"]
      }],
      "gender" : "male",
      "birthDate" : "1947-09-25"
    }
  },
  {
    "fullUrl" : "http://medcomfhir.dk/ig/conditionlist/Organization/fd3206c6-c265-49f9-82c3-8b4c96280403",
    "resource" : {
      "resourceType" : "Organization",
      "id" : "fd3206c6-c265-49f9-82c3-8b4c96280403",
      "meta" : {
        "profile" : ["http://medcomfhir.dk/ig/conditionlist/StructureDefinition/medcom-conditionlist-organization"]
      },
      "text" : {
        "status" : "generated",
        "div" : "<div xmlns=\"http://www.w3.org/1999/xhtml\"><a name=\"Organization_fd3206c6-c265-49f9-82c3-8b4c96280403\"> </a><p class=\"res-header-id\"><b>Generated Narrative: Organization fd3206c6-c265-49f9-82c3-8b4c96280403</b></p><a name=\"fd3206c6-c265-49f9-82c3-8b4c96280403\"> </a><a name=\"hcfd3206c6-c265-49f9-82c3-8b4c96280403\"> </a><a name=\"fd3206c6-c265-49f9-82c3-8b4c96280403-en-US\"> </a><div style=\"display: inline-block; background-color: #d9e0e7; padding: 6px; margin: 4px; border: 1px solid #8da1b4; border-radius: 5px; line-height: 60%\"><p style=\"margin-bottom: 0px\"/><p style=\"margin-bottom: 0px\">Profile: <a href=\"StructureDefinition-medcom-conditionlist-organization.html\">MedComConditionListOrganization</a></p></div><p><b>identifier</b>: <code>urn:oid:1.2.208.176.1.1</code>/325381000016008, <code>urn:oid:1.2.208.176.1.4</code>/091034</p><p><b>name</b>: MedCom Testcenter</p></div>"
      },
      "identifier" : [{
        "system" : "urn:oid:1.2.208.176.1.1",
        "value" : "325381000016008"
      },
      {
        "system" : "urn:oid:1.2.208.176.1.4",
        "value" : "091034"
      }],
      "name" : "MedCom Testcenter"
    }
  },
  {
    "fullUrl" : "http://medcomfhir.dk/ig/conditionlist/Practitioner/1fcad31f-8967-4f49-b6af-7e64082e8fec",
    "resource" : {
      "resourceType" : "Practitioner",
      "id" : "1fcad31f-8967-4f49-b6af-7e64082e8fec",
      "meta" : {
        "profile" : ["http://medcomfhir.dk/ig/document/StructureDefinition/medcom-document-practitioner"]
      },
      "text" : {
        "status" : "generated",
        "div" : "<div xmlns=\"http://www.w3.org/1999/xhtml\"><a name=\"Practitioner_1fcad31f-8967-4f49-b6af-7e64082e8fec\"> </a><p class=\"res-header-id\"><b>Generated Narrative: Practitioner 1fcad31f-8967-4f49-b6af-7e64082e8fec</b></p><a name=\"1fcad31f-8967-4f49-b6af-7e64082e8fec\"> </a><a name=\"hc1fcad31f-8967-4f49-b6af-7e64082e8fec\"> </a><a name=\"1fcad31f-8967-4f49-b6af-7e64082e8fec-en-US\"> </a><div style=\"display: inline-block; background-color: #d9e0e7; padding: 6px; margin: 4px; border: 1px solid #8da1b4; border-radius: 5px; line-height: 60%\"><p style=\"margin-bottom: 0px\"/><p style=\"margin-bottom: 0px\">Profile: <a href=\"http://medcomfhir.dk/ig/document/1.0.1/StructureDefinition-medcom-document-practitioner.html\">MedComDocumentPractitioner</a></p></div><p><b>name</b>: Bo Test Vestergaard (Official)</p></div>"
      },
      "name" : [{
        "use" : "official",
        "family" : "Vestergaard",
        "given" : ["Bo",
        "Test"]
      }]
    }
  },
  {
    "fullUrl" : "http://medcomfhir.dk/ig/conditionlist/Condition/2f703d89-787d-418f-a804-b986aa181492",
    "resource" : {
      "resourceType" : "Condition",
      "id" : "2f703d89-787d-418f-a804-b986aa181492",
      "meta" : {
        "profile" : ["http://medcomfhir.dk/ig/conditionlist/StructureDefinition/medcom-conditionlist-condition"]
      },
      "text" : {
        "status" : "generated",
        "div" : "<div xmlns=\"http://www.w3.org/1999/xhtml\"><a name=\"Condition_2f703d89-787d-418f-a804-b986aa181492\"> </a><p class=\"res-header-id\"><b>Generated Narrative: Condition 2f703d89-787d-418f-a804-b986aa181492</b></p><a name=\"2f703d89-787d-418f-a804-b986aa181492\"> </a><a name=\"hc2f703d89-787d-418f-a804-b986aa181492\"> </a><a name=\"2f703d89-787d-418f-a804-b986aa181492-en-US\"> </a><div style=\"display: inline-block; background-color: #d9e0e7; padding: 6px; margin: 4px; border: 1px solid #8da1b4; border-radius: 5px; line-height: 60%\"><p style=\"margin-bottom: 0px\"/><p style=\"margin-bottom: 0px\">Profile: <a href=\"StructureDefinition-medcom-conditionlist-condition.html\">MedComConditionListCondition</a></p></div><p><b>category</b>: <span title=\"Codes:{http://terminology.hl7.org/CodeSystem/condition-category problem-list-item}\">Problem List Item</span>, <span title=\"Codes:{http://snomed.info/sct 15240007}\">Current</span></p><p><b>code</b>: <span title=\"Codes:{urn:oid:1.2.208.176.2.4.12 DE11}, {urn:oid:1.2.208.176.2.31 T90}\">Type 2-diabetes</span></p><p><b>subject</b>: <a href=\"Patient-69e475df-20c8-4f54-8cea-9843568205fd.html\">Elmer Test Hansen (official) Male, DoB: 1947-09-25 ( urn:oid:1.2.208.176.1.2#2509479989)</a></p><p><b>onset</b>: 2020-02-20</p><p><b>recordedDate</b>: 2023-03-15</p><p><b>note</b>: Patienten er særligt ramt af træthed grundet sygdommen.</p></div>"
      },
      "category" : [{
        "coding" : [{
          "system" : "http://terminology.hl7.org/CodeSystem/condition-category",
          "code" : "problem-list-item"
        }]
      },
      {
        "coding" : [{
          "system" : "http://snomed.info/sct",
          "code" : "15240007"
        }]
      }],
      "code" : {
        "coding" : [{
          "system" : "urn:oid:1.2.208.176.2.4.12",
          "code" : "DE11",
          "display" : "Type 2-diabetes"
        },
        {
          "system" : "urn:oid:1.2.208.176.2.31",
          "code" : "T90",
          "display" : "Diabetes type 2"
        }],
        "text" : "Type 2-diabetes"
      },
      "subject" : {
        "reference" : "Patient/69e475df-20c8-4f54-8cea-9843568205fd"
      },
      "onsetDateTime" : "2020-02-20",
      "recordedDate" : "2023-03-15",
      "note" : [{
        "text" : "Patienten er særligt ramt af træthed grundet sygdommen."
      }]
    }
  },
  {
    "fullUrl" : "http://medcomfhir.dk/ig/conditionlist/Condition/9dd0e1c2-3c7d-423f-977c-29119c314fd1",
    "resource" : {
      "resourceType" : "Condition",
      "id" : "9dd0e1c2-3c7d-423f-977c-29119c314fd1",
      "meta" : {
        "profile" : ["http://medcomfhir.dk/ig/conditionlist/StructureDefinition/medcom-conditionlist-condition"]
      },
      "text" : {
        "status" : "generated",
        "div" : "<div xmlns=\"http://www.w3.org/1999/xhtml\"><a name=\"Condition_9dd0e1c2-3c7d-423f-977c-29119c314fd1\"> </a><p class=\"res-header-id\"><b>Generated Narrative: Condition 9dd0e1c2-3c7d-423f-977c-29119c314fd1</b></p><a name=\"9dd0e1c2-3c7d-423f-977c-29119c314fd1\"> </a><a name=\"hc9dd0e1c2-3c7d-423f-977c-29119c314fd1\"> </a><a name=\"9dd0e1c2-3c7d-423f-977c-29119c314fd1-en-US\"> </a><div style=\"display: inline-block; background-color: #d9e0e7; padding: 6px; margin: 4px; border: 1px solid #8da1b4; border-radius: 5px; line-height: 60%\"><p style=\"margin-bottom: 0px\"/><p style=\"margin-bottom: 0px\">Profile: <a href=\"StructureDefinition-medcom-conditionlist-condition.html\">MedComConditionListCondition</a></p></div><p><b>clinicalStatus</b>: <span title=\"Codes:{http://terminology.hl7.org/CodeSystem/condition-clinical resolved}\">Resolved</span></p><p><b>category</b>: <span title=\"Codes:{http://snomed.info/sct 723506003}\">Resolved (qualifier value)</span>, <span title=\"Codes:{http://terminology.hl7.org/CodeSystem/condition-category encounter-diagnosis}\">Encounter Diagnosis</span></p><p><b>code</b>: <span title=\"Codes:{urn:oid:1.2.208.176.2.4.12 DC43}, {urn:oid:1.2.208.176.2.31 S77}\">Modermærkekræft</span></p><p><b>subject</b>: <a href=\"Patient-69e475df-20c8-4f54-8cea-9843568205fd.html\">Elmer Test Hansen (official) Male, DoB: 1947-09-25 ( urn:oid:1.2.208.176.1.2#2509479989)</a></p><p><b>onset</b>: 2023-03-20</p><p><b>abatement</b>: 2023-06-07</p><p><b>recordedDate</b>: 2023-05-01</p><p><b>note</b>: Modermærkekræft på patientens venstre læg.</p></div>"
      },
      "clinicalStatus" : {
        "coding" : [{
          "system" : "http://terminology.hl7.org/CodeSystem/condition-clinical",
          "code" : "resolved"
        }]
      },
      "category" : [{
        "coding" : [{
          "system" : "http://snomed.info/sct",
          "code" : "723506003"
        }]
      },
      {
        "coding" : [{
          "system" : "http://terminology.hl7.org/CodeSystem/condition-category",
          "code" : "encounter-diagnosis"
        }]
      }],
      "code" : {
        "coding" : [{
          "system" : "urn:oid:1.2.208.176.2.4.12",
          "code" : "DC43",
          "display" : "Modermærkekræft i huden"
        },
        {
          "system" : "urn:oid:1.2.208.176.2.31",
          "code" : "S77",
          "display" : "Hudkræft"
        }],
        "text" : "Modermærkekræft"
      },
      "subject" : {
        "reference" : "Patient/69e475df-20c8-4f54-8cea-9843568205fd"
      },
      "onsetDateTime" : "2023-03-20",
      "abatementDateTime" : "2023-06-07",
      "recordedDate" : "2023-05-01",
      "note" : [{
        "text" : "Modermærkekræft på patientens venstre læg."
      }]
    }
  },
  {
    "fullUrl" : "http://medcomfhir.dk/ig/conditionlist/Condition/f90a8472-6495-4865-be5d-fae6650a033e",
    "resource" : {
      "resourceType" : "Condition",
      "id" : "f90a8472-6495-4865-be5d-fae6650a033e",
      "meta" : {
        "profile" : ["http://medcomfhir.dk/ig/conditionlist/StructureDefinition/medcom-conditionlist-condition"]
      },
      "text" : {
        "status" : "generated",
        "div" : "<div xmlns=\"http://www.w3.org/1999/xhtml\"><a name=\"Condition_f90a8472-6495-4865-be5d-fae6650a033e\"> </a><p class=\"res-header-id\"><b>Generated Narrative: Condition f90a8472-6495-4865-be5d-fae6650a033e</b></p><a name=\"f90a8472-6495-4865-be5d-fae6650a033e\"> </a><a name=\"hcf90a8472-6495-4865-be5d-fae6650a033e\"> </a><a name=\"f90a8472-6495-4865-be5d-fae6650a033e-en-US\"> </a><div style=\"display: inline-block; background-color: #d9e0e7; padding: 6px; margin: 4px; border: 1px solid #8da1b4; border-radius: 5px; line-height: 60%\"><p style=\"margin-bottom: 0px\"/><p style=\"margin-bottom: 0px\">Profile: <a href=\"StructureDefinition-medcom-conditionlist-condition.html\">MedComConditionListCondition</a></p></div><p><b>category</b>: <span title=\"Codes:{http://snomed.info/sct 15240007}\">Current</span>, <span title=\"Codes:{http://terminology.hl7.org/CodeSystem/condition-category problem-list-item}\">Problem List Item</span></p><p><b>code</b>: <span title=\"Codes:{urn:oid:1.2.208.176.2.4.12 DI109}, {urn:oid:1.2.208.176.2.31 K86}\">Hypertensio arterialis essentialis</span></p><p><b>subject</b>: <a href=\"Patient-69e475df-20c8-4f54-8cea-9843568205fd.html\">Elmer Test Hansen (official) Male, DoB: 1947-09-25 ( urn:oid:1.2.208.176.1.2#2509479989)</a></p><p><b>recordedDate</b>: 2024-01-17</p></div>"
      },
      "category" : [{
        "coding" : [{
          "system" : "http://snomed.info/sct",
          "code" : "15240007"
        }]
      },
      {
        "coding" : [{
          "system" : "http://terminology.hl7.org/CodeSystem/condition-category",
          "code" : "problem-list-item"
        }]
      }],
      "code" : {
        "coding" : [{
          "system" : "urn:oid:1.2.208.176.2.4.12",
          "code" : "DI109",
          "display" : "Essentiel Hypertension"
        },
        {
          "system" : "urn:oid:1.2.208.176.2.31",
          "code" : "K86",
          "display" : "Ukompliceret Hypertension"
        }],
        "text" : "Hypertensio arterialis essentialis"
      },
      "subject" : {
        "reference" : "Patient/69e475df-20c8-4f54-8cea-9843568205fd"
      },
      "recordedDate" : "2024-01-17"
    }
  }]
}