{
  "resourceType" : "Bundle",
  "id" : "b991dcb7-6f2a-4e56-96f9-6b4b23cb9472",
  "meta" : {
    "profile" : ["http://medcomfhir.dk/ig/conditionlist/StructureDefinition/medcom-conditionlist-bundle"]
  },
  "identifier" : {
    "system" : "urn:ietf:rfc:3986",
    "value" : "urn:uuid:85cca4a4-30f2-4236-807b-74d8382e3dfa"
  },
  "type" : "document",
  "timestamp" : "2024-07-10T12:50:00+01:00",
  "entry" : [{
    "fullUrl" : "http://medcomfhir.dk/ig/conditionlist/Composition/a0e783b7-027f-45c7-a487-05853876b1d7",
    "resource" : {
      "resourceType" : "Composition",
      "id" : "a0e783b7-027f-45c7-a487-05853876b1d7",
      "meta" : {
        "profile" : ["http://medcomfhir.dk/ig/conditionlist/StructureDefinition/medcom-conditionlist-composition"]
      },
      "language" : "da",
      "text" : {
        "status" : "generated",
        "div" : "<div xmlns=\"http://www.w3.org/1999/xhtml\" xml:lang=\"da\" lang=\"da\"><a name=\"Composition_a0e783b7-027f-45c7-a487-05853876b1d7\"> </a><p class=\"res-header-id\"><b>Generated Narrative: Composition a0e783b7-027f-45c7-a487-05853876b1d7</b></p><a name=\"a0e783b7-027f-45c7-a487-05853876b1d7\"> </a><a name=\"hca0e783b7-027f-45c7-a487-05853876b1d7\"> </a><a name=\"a0e783b7-027f-45c7-a487-05853876b1d7-en-US\"> </a><div style=\"display: inline-block; background-color: #d9e0e7; padding: 6px; margin: 4px; border: 1px solid #8da1b4; border-radius: 5px; line-height: 60%\"><p style=\"margin-bottom: 0px\">Language: da</p><p style=\"margin-bottom: 0px\">Profile: <a href=\"StructureDefinition-medcom-conditionlist-composition.html\">MedComConditionListComposition</a></p></div><p><b>status</b>: Final</p><p><b>type</b>: <span title=\"Codes:{http://loinc.org 11450-4}\">Problem list - Reported</span></p><p><b>date</b>: 2024-07-10 12:50:00+0100</p><p><b>author</b>: <a href=\"Organization-1895c469-212b-45f4-8666-c5c7c1413380.html\">Organization MedCom Testcenter</a></p><p><b>title</b>: Diagnoseoversigt for 2509479989</p><p><b>confidentiality</b>: normal</p></div>"
      },
      "status" : "final",
      "type" : {
        "coding" : [{
          "system" : "http://loinc.org",
          "code" : "11450-4",
          "display" : "Problem list - Reported"
        }]
      },
      "subject" : {
        "reference" : "Patient/d65cd8db-4520-4264-87be-a5fd01fb9762"
      },
      "date" : "2024-07-10T12:50:00+01:00",
      "author" : [{
        "reference" : "Organization/1895c469-212b-45f4-8666-c5c7c1413380"
      }],
      "title" : "Diagnoseoversigt for 2509479989",
      "confidentiality" : "N",
      "section" : [{
        "text" : {
          "status" : "generated",
          "div" : "<div xmlns=\"http://www.w3.org/1999/xhtml\"><p class=\"res-header-id\"><b>Generated Narrative: Condition 17e3b0c0-0497-49e1-9cf1-4e1eea8fc79d</b></p><a name=\"17e3b0c0-0497-49e1-9cf1-4e1eea8fc79d\"></a><a name=\"hc17e3b0c0-0497-49e1-9cf1-4e1eea8fc79d\"> </a><a name=\"17e3b0c0-0497-49e1-9cf1-4e1eea8fc79d-en-US\"></a><p><b>category</b>: <span title=\"Codes:{http://terminology.hl7.org/CodeSystem/condition-category problem-list-item}\">Problem List Item</span>, <span title=\"Codes:{http://snomed.info/sct 15240007}\">Current</span></p><p><b>code</b>: <span title=\"Codes:{urn:oid:1.2.208.176.2.4.12 DF329}, {urn:oid:1.2.208.176.2.31 P76}\">Depression</span></p><p><b>subject</b>: <a href=\"Patient-d65cd8db-4520-4264-87be-a5fd01fb9762.html\">Niels Test Vendelboe (official) Male, DoB: 1974-01-30 ( urn:oid:1.2.208.176.1.2#3001749995)</a></p><p><b>recordedDate</b>: 2024-01-16</p></div>"
        },
        "entry" : [{
          "reference" : "Condition/17e3b0c0-0497-49e1-9cf1-4e1eea8fc79d"
        }]
      }]
    }
  },
  {
    "fullUrl" : "http://medcomfhir.dk/ig/conditionlist/Patient/d65cd8db-4520-4264-87be-a5fd01fb9762",
    "resource" : {
      "resourceType" : "Patient",
      "id" : "d65cd8db-4520-4264-87be-a5fd01fb9762",
      "meta" : {
        "profile" : ["http://medcomfhir.dk/ig/document/StructureDefinition/medcom-document-patient"]
      },
      "text" : {
        "status" : "generated",
        "div" : "<div xmlns=\"http://www.w3.org/1999/xhtml\"><a name=\"Patient_d65cd8db-4520-4264-87be-a5fd01fb9762\"> </a><p class=\"res-header-id\"><b>Generated Narrative: Patient d65cd8db-4520-4264-87be-a5fd01fb9762</b></p><a name=\"d65cd8db-4520-4264-87be-a5fd01fb9762\"> </a><a name=\"hcd65cd8db-4520-4264-87be-a5fd01fb9762\"> </a><a name=\"d65cd8db-4520-4264-87be-a5fd01fb9762-en-US\"> </a><div style=\"display: inline-block; background-color: #d9e0e7; padding: 6px; margin: 4px; border: 1px solid #8da1b4; border-radius: 5px; line-height: 60%\"><p style=\"margin-bottom: 0px\"/><p style=\"margin-bottom: 0px\">Profile: <a href=\"http://medcomfhir.dk/ig/document/1.0.1/StructureDefinition-medcom-document-patient.html\">MedComDocumentPatient</a></p></div><p style=\"border: 1px #661aff solid; background-color: #e6e6ff; padding: 10px;\">Niels Test Vendelboe (official) Male, DoB: 1974-01-30 ( urn:oid:1.2.208.176.1.2#3001749995)</p><hr/></div>"
      },
      "identifier" : [{
        "system" : "urn:oid:1.2.208.176.1.2",
        "value" : "3001749995"
      }],
      "name" : [{
        "use" : "official",
        "family" : "Vendelboe",
        "given" : ["Niels",
        "Test"]
      }],
      "gender" : "male",
      "birthDate" : "1974-01-30"
    }
  },
  {
    "fullUrl" : "http://medcomfhir.dk/ig/conditionlist/Organization/1895c469-212b-45f4-8666-c5c7c1413380",
    "resource" : {
      "resourceType" : "Organization",
      "id" : "1895c469-212b-45f4-8666-c5c7c1413380",
      "meta" : {
        "profile" : ["http://medcomfhir.dk/ig/conditionlist/StructureDefinition/medcom-conditionlist-organization"]
      },
      "text" : {
        "status" : "generated",
        "div" : "<div xmlns=\"http://www.w3.org/1999/xhtml\"><a name=\"Organization_1895c469-212b-45f4-8666-c5c7c1413380\"> </a><p class=\"res-header-id\"><b>Generated Narrative: Organization 1895c469-212b-45f4-8666-c5c7c1413380</b></p><a name=\"1895c469-212b-45f4-8666-c5c7c1413380\"> </a><a name=\"hc1895c469-212b-45f4-8666-c5c7c1413380\"> </a><a name=\"1895c469-212b-45f4-8666-c5c7c1413380-en-US\"> </a><div style=\"display: inline-block; background-color: #d9e0e7; padding: 6px; margin: 4px; border: 1px solid #8da1b4; border-radius: 5px; line-height: 60%\"><p style=\"margin-bottom: 0px\"/><p style=\"margin-bottom: 0px\">Profile: <a href=\"StructureDefinition-medcom-conditionlist-organization.html\">MedComConditionListOrganization</a></p></div><p><b>identifier</b>: <code>urn:oid:1.2.208.176.1.1</code>/325381000016008</p><p><b>name</b>: MedCom Testcenter</p></div>"
      },
      "identifier" : [{
        "system" : "urn:oid:1.2.208.176.1.1",
        "value" : "325381000016008"
      }],
      "name" : "MedCom Testcenter"
    }
  },
  {
    "fullUrl" : "http://medcomfhir.dk/ig/conditionlist/Condition/17e3b0c0-0497-49e1-9cf1-4e1eea8fc79d",
    "resource" : {
      "resourceType" : "Condition",
      "id" : "17e3b0c0-0497-49e1-9cf1-4e1eea8fc79d",
      "meta" : {
        "profile" : ["http://medcomfhir.dk/ig/conditionlist/StructureDefinition/medcom-conditionlist-condition"]
      },
      "text" : {
        "status" : "generated",
        "div" : "<div xmlns=\"http://www.w3.org/1999/xhtml\"><a name=\"Condition_17e3b0c0-0497-49e1-9cf1-4e1eea8fc79d\"> </a><p class=\"res-header-id\"><b>Generated Narrative: Condition 17e3b0c0-0497-49e1-9cf1-4e1eea8fc79d</b></p><a name=\"17e3b0c0-0497-49e1-9cf1-4e1eea8fc79d\"> </a><a name=\"hc17e3b0c0-0497-49e1-9cf1-4e1eea8fc79d\"> </a><a name=\"17e3b0c0-0497-49e1-9cf1-4e1eea8fc79d-en-US\"> </a><div style=\"display: inline-block; background-color: #d9e0e7; padding: 6px; margin: 4px; border: 1px solid #8da1b4; border-radius: 5px; line-height: 60%\"><p style=\"margin-bottom: 0px\"/><p style=\"margin-bottom: 0px\">Profile: <a href=\"StructureDefinition-medcom-conditionlist-condition.html\">MedComConditionListCondition</a></p></div><p><b>category</b>: <span title=\"Codes:{http://terminology.hl7.org/CodeSystem/condition-category problem-list-item}\">Problem List Item</span>, <span title=\"Codes:{http://snomed.info/sct 15240007}\">Current</span></p><p><b>code</b>: <span title=\"Codes:{urn:oid:1.2.208.176.2.4.12 DF329}, {urn:oid:1.2.208.176.2.31 P76}\">Depression</span></p><p><b>subject</b>: <a href=\"Patient-d65cd8db-4520-4264-87be-a5fd01fb9762.html\">Niels Test Vendelboe (official) Male, DoB: 1974-01-30 ( urn:oid:1.2.208.176.1.2#3001749995)</a></p><p><b>recordedDate</b>: 2024-01-16</p></div>"
      },
      "category" : [{
        "coding" : [{
          "system" : "http://terminology.hl7.org/CodeSystem/condition-category",
          "code" : "problem-list-item"
        }]
      },
      {
        "coding" : [{
          "system" : "http://snomed.info/sct",
          "code" : "15240007"
        }]
      }],
      "code" : {
        "coding" : [{
          "system" : "urn:oid:1.2.208.176.2.4.12",
          "code" : "DF329"
        },
        {
          "system" : "urn:oid:1.2.208.176.2.31",
          "code" : "P76"
        }],
        "text" : "Depression"
      },
      "subject" : {
        "reference" : "Patient/d65cd8db-4520-4264-87be-a5fd01fb9762"
      },
      "recordedDate" : "2024-01-16"
    }
  }]
}