<?xml version="1.0" encoding="UTF-8"?>

<Bundle xmlns="http://hl7.org/fhir">
  <id value="9d923ef7-c817-4e41-a0c2-01c80e8bde0c"/>
  <meta>
    <profile value="http://medcomfhir.dk/ig/conditionlist/StructureDefinition/medcom-conditionlist-bundle"/>
  </meta>
  <identifier>
    <system value="urn:ietf:rfc:3986"/>
    <value value="urn:uuid:d7380136-9bb7-4556-b9f8-107db575d52c"/>
  </identifier>
  <type value="document"/>
  <timestamp value="2024-07-10T12:50:00+01:00"/>
  <entry>
    <fullUrl value="http://medcomfhir.dk/ig/conditionlist/Composition/bff247c2-2330-450a-aa15-c15b85ab30b5"/>
    <resource>
      <Composition>
        <id value="bff247c2-2330-450a-aa15-c15b85ab30b5"/>
        <meta>
          <profile value="http://medcomfhir.dk/ig/conditionlist/StructureDefinition/medcom-conditionlist-composition"/>
        </meta>
        <language value="da"/>
        <text>
          <status value="generated"/><div xmlns="http://www.w3.org/1999/xhtml" xml:lang="da" lang="da"><a name="Composition_bff247c2-2330-450a-aa15-c15b85ab30b5"> </a><p class="res-header-id"><b>Generated Narrative: Composition bff247c2-2330-450a-aa15-c15b85ab30b5</b></p><a name="bff247c2-2330-450a-aa15-c15b85ab30b5"> </a><a name="hcbff247c2-2330-450a-aa15-c15b85ab30b5"> </a><a name="bff247c2-2330-450a-aa15-c15b85ab30b5-en-US"> </a><div style="display: inline-block; background-color: #d9e0e7; padding: 6px; margin: 4px; border: 1px solid #8da1b4; border-radius: 5px; line-height: 60%"><p style="margin-bottom: 0px">Language: da</p><p style="margin-bottom: 0px">Profile: <a href="StructureDefinition-medcom-conditionlist-composition.html">MedComConditionListComposition</a></p></div><p><b>status</b>: Final</p><p><b>type</b>: <span title="Codes:{http://loinc.org 11450-4}">Problem list - Reported</span></p><p><b>date</b>: 2024-07-10 12:50:00+0100</p><p><b>author</b>: <a href="Organization-c2e9627a-04d2-48a3-9972-792f0bd006ab.html">Organization MedCom Testcenter</a></p><p><b>title</b>: Diagnoseoversigt for 2509479989</p><p><b>confidentiality</b>: normal</p></div>
        </text>
        <status value="final"/>
        <type>
          <coding>
            <system value="http://loinc.org"/>
            <code value="11450-4"/>
            <display value="Problem list - Reported"/>
          </coding>
        </type>
        <subject>
          <reference value="Patient/be8156f3-41d1-47e3-847a-4b064a3b42b2"/>
        </subject>
        <date value="2024-07-10T12:50:00+01:00"/>
        <author>
          <reference value="Organization/c2e9627a-04d2-48a3-9972-792f0bd006ab"/>
        </author>
        <title value="Diagnoseoversigt for 2509479989"/>
        <confidentiality value="N"/>
        <section>
          <text>
            <status value="generated"/><div xmlns="http://www.w3.org/1999/xhtml"><p class="res-header-id"><b>Generated Narrative: Condition 3907bd98-8f4f-4b6c-9569-e232bdd7cd3b</b></p><a name="3907bd98-8f4f-4b6c-9569-e232bdd7cd3b"></a><a name="hc3907bd98-8f4f-4b6c-9569-e232bdd7cd3b"> </a><a name="3907bd98-8f4f-4b6c-9569-e232bdd7cd3b-en-US"></a><p><b>code</b>: <span title="Codes:">ACB</span></p><p><b>subject</b>: <a href="Patient-be8156f3-41d1-47e3-847a-4b064a3b42b2.html">Pia Test Berggren (official) Female, DoB: 2005-05-05 ( urn:oid:1.2.208.176.1.2#0505059996)</a></p><p><b>recordedDate</b>: 2024-03-15</p></div>
          </text>
          <entry>
            <reference value="Condition/3907bd98-8f4f-4b6c-9569-e232bdd7cd3b"/>
          </entry>
        </section>
      </Composition>
    </resource>
  </entry>
  <entry>
    <fullUrl value="http://medcomfhir.dk/ig/conditionlist/Patient/be8156f3-41d1-47e3-847a-4b064a3b42b2"/>
    <resource>
      <Patient>
        <id value="be8156f3-41d1-47e3-847a-4b064a3b42b2"/>
        <meta>
          <profile value="http://medcomfhir.dk/ig/document/StructureDefinition/medcom-document-patient"/>
        </meta>
        <text>
          <status value="generated"/><div xmlns="http://www.w3.org/1999/xhtml"><a name="Patient_be8156f3-41d1-47e3-847a-4b064a3b42b2"> </a><p class="res-header-id"><b>Generated Narrative: Patient be8156f3-41d1-47e3-847a-4b064a3b42b2</b></p><a name="be8156f3-41d1-47e3-847a-4b064a3b42b2"> </a><a name="hcbe8156f3-41d1-47e3-847a-4b064a3b42b2"> </a><a name="be8156f3-41d1-47e3-847a-4b064a3b42b2-en-US"> </a><div style="display: inline-block; background-color: #d9e0e7; padding: 6px; margin: 4px; border: 1px solid #8da1b4; border-radius: 5px; line-height: 60%"><p style="margin-bottom: 0px"/><p style="margin-bottom: 0px">Profile: <a href="http://medcomfhir.dk/ig/document/1.0.1/StructureDefinition-medcom-document-patient.html">MedComDocumentPatient</a></p></div><p style="border: 1px #661aff solid; background-color: #e6e6ff; padding: 10px;">Pia Test Berggren (official) Female, DoB: 2005-05-05 ( urn:oid:1.2.208.176.1.2#0505059996)</p><hr/></div>
        </text>
        <identifier>
          <system value="urn:oid:1.2.208.176.1.2"/>
          <value value="0505059996"/>
        </identifier>
        <name>
          <use value="official"/>
          <family value="Berggren"/>
          <given value="Pia"/>
          <given value="Test"/>
        </name>
        <gender value="female"/>
        <birthDate value="2005-05-05"/>
      </Patient>
    </resource>
  </entry>
  <entry>
    <fullUrl value="http://medcomfhir.dk/ig/conditionlist/Organization/c2e9627a-04d2-48a3-9972-792f0bd006ab"/>
    <resource>
      <Organization>
        <id value="c2e9627a-04d2-48a3-9972-792f0bd006ab"/>
        <meta>
          <profile value="http://medcomfhir.dk/ig/conditionlist/StructureDefinition/medcom-conditionlist-organization"/>
        </meta>
        <text>
          <status value="generated"/><div xmlns="http://www.w3.org/1999/xhtml"><a name="Organization_c2e9627a-04d2-48a3-9972-792f0bd006ab"> </a><p class="res-header-id"><b>Generated Narrative: Organization c2e9627a-04d2-48a3-9972-792f0bd006ab</b></p><a name="c2e9627a-04d2-48a3-9972-792f0bd006ab"> </a><a name="hcc2e9627a-04d2-48a3-9972-792f0bd006ab"> </a><a name="c2e9627a-04d2-48a3-9972-792f0bd006ab-en-US"> </a><div style="display: inline-block; background-color: #d9e0e7; padding: 6px; margin: 4px; border: 1px solid #8da1b4; border-radius: 5px; line-height: 60%"><p style="margin-bottom: 0px"/><p style="margin-bottom: 0px">Profile: <a href="StructureDefinition-medcom-conditionlist-organization.html">MedComConditionListOrganization</a></p></div><p><b>identifier</b>: <code>urn:oid:1.2.208.176.1.1</code>/325381000016008</p><p><b>name</b>: MedCom Testcenter</p></div>
        </text>
        <identifier>
          <system value="urn:oid:1.2.208.176.1.1"/>
          <value value="325381000016008"/>
        </identifier>
        <name value="MedCom Testcenter"/>
      </Organization>
    </resource>
  </entry>
  <entry>
    <fullUrl value="http://medcomfhir.dk/ig/conditionlist/Condition/3907bd98-8f4f-4b6c-9569-e232bdd7cd3b"/>
    <resource>
      <Condition>
        <id value="3907bd98-8f4f-4b6c-9569-e232bdd7cd3b"/>
        <meta>
          <profile value="http://medcomfhir.dk/ig/conditionlist/StructureDefinition/medcom-conditionlist-condition"/>
        </meta>
        <text>
          <status value="generated"/><div xmlns="http://www.w3.org/1999/xhtml"><a name="Condition_3907bd98-8f4f-4b6c-9569-e232bdd7cd3b"> </a><p class="res-header-id"><b>Generated Narrative: Condition 3907bd98-8f4f-4b6c-9569-e232bdd7cd3b</b></p><a name="3907bd98-8f4f-4b6c-9569-e232bdd7cd3b"> </a><a name="hc3907bd98-8f4f-4b6c-9569-e232bdd7cd3b"> </a><a name="3907bd98-8f4f-4b6c-9569-e232bdd7cd3b-en-US"> </a><div style="display: inline-block; background-color: #d9e0e7; padding: 6px; margin: 4px; border: 1px solid #8da1b4; border-radius: 5px; line-height: 60%"><p style="margin-bottom: 0px"/><p style="margin-bottom: 0px">Profile: <a href="StructureDefinition-medcom-conditionlist-condition.html">MedComConditionListCondition</a></p></div><p><b>category</b>: <span title="Codes:{http://snomed.info/sct 15240007}">Current</span></p><p><b>code</b>: <span title="Codes:">ACB</span></p><p><b>subject</b>: <a href="Patient-be8156f3-41d1-47e3-847a-4b064a3b42b2.html">Pia Test Berggren (official) Female, DoB: 2005-05-05 ( urn:oid:1.2.208.176.1.2#0505059996)</a></p><p><b>recordedDate</b>: 2024-03-15</p></div>
        </text>
        <category>
          <coding>
            <system value="http://snomed.info/sct"/>
            <code value="15240007"/>
          </coding>
        </category>
        <code>
          <coding>
            <code value="ACB"/>
          </coding>
        </code>
        <subject>
          <reference value="Patient/be8156f3-41d1-47e3-847a-4b064a3b42b2"/>
        </subject>
        <recordedDate value="2024-03-15"/>
      </Condition>
    </resource>
  </entry>
</Bundle>