<?xml version="1.0" encoding="UTF-8"?>

<Bundle xmlns="http://hl7.org/fhir">
  <id value="df3915a2-6f88-4dea-955a-1b0008b23853"/>
  <meta>
    <profile value="http://medcomfhir.dk/ig/conditionlist/StructureDefinition/medcom-conditionlist-bundle"/>
  </meta>
  <identifier>
    <system value="urn:ietf:rfc:3986"/>
    <value value="urn:uuid:55a881c6-def1-4e53-b0a9-211726e9c05d"/>
  </identifier>
  <type value="document"/>
  <timestamp value="2024-07-10T12:50:00+01:00"/>
  <entry>
    <fullUrl value="http://medcomfhir.dk/ig/conditionlist/Composition/15c083cc-2231-4786-beeb-2e6267655017"/>
    <resource>
      <Composition>
        <id value="15c083cc-2231-4786-beeb-2e6267655017"/>
        <meta>
          <profile value="http://medcomfhir.dk/ig/conditionlist/StructureDefinition/medcom-conditionlist-composition"/>
        </meta>
        <language value="da"/>
        <text>
          <status value="generated"/><div xmlns="http://www.w3.org/1999/xhtml" xml:lang="da" lang="da"><a name="Composition_15c083cc-2231-4786-beeb-2e6267655017"> </a><p class="res-header-id"><b>Generated Narrative: Composition 15c083cc-2231-4786-beeb-2e6267655017</b></p><a name="15c083cc-2231-4786-beeb-2e6267655017"> </a><a name="hc15c083cc-2231-4786-beeb-2e6267655017"> </a><a name="15c083cc-2231-4786-beeb-2e6267655017-en-US"> </a><div style="display: inline-block; background-color: #d9e0e7; padding: 6px; margin: 4px; border: 1px solid #8da1b4; border-radius: 5px; line-height: 60%"><p style="margin-bottom: 0px">Language: da</p><p style="margin-bottom: 0px">Profile: <a href="StructureDefinition-medcom-conditionlist-composition.html">MedComConditionListComposition</a></p></div><p><b>status</b>: Final</p><p><b>type</b>: <span title="Codes:{http://loinc.org 11450-4}">Problem list - Reported</span></p><p><b>date</b>: 2024-07-10 12:50:00+0100</p><p><b>author</b>: <a href="Organization-432aba79-99d5-4e03-801b-2f800fc7a251.html">Organization MedCom Testcenter</a></p><p><b>title</b>: Diagnoseoversigt for 2509479989</p><p><b>confidentiality</b>: normal</p></div>
        </text>
        <status value="final"/>
        <type>
          <coding>
            <system value="http://loinc.org"/>
            <code value="11450-4"/>
            <display value="Problem list - Reported"/>
          </coding>
        </type>
        <subject>
          <reference value="Patient/ea75a3fe-b8f7-4326-9a12-8c950c63dd6f"/>
        </subject>
        <date value="2024-07-10T12:50:00+01:00"/>
        <author>
          <reference value="Organization/432aba79-99d5-4e03-801b-2f800fc7a251"/>
        </author>
        <title value="Diagnoseoversigt for 2509479989"/>
        <confidentiality value="N"/>
        <section>
          <text>
            <status value="generated"/><div xmlns="http://www.w3.org/1999/xhtml"><p class="res-header-id"><b>Generated Narrative: Condition 41cd63cb-45b7-4b07-a202-f2ab918dec60</b></p><a name="41cd63cb-45b7-4b07-a202-f2ab918dec60"></a><a name="hc41cd63cb-45b7-4b07-a202-f2ab918dec60"> </a><a name="41cd63cb-45b7-4b07-a202-f2ab918dec60-en-US"></a><p><b>category</b>: <span title="Codes:{http://snomed.info/sct 15240007}">Current</span></p><p><b>code</b>: <span title="Codes:{urn:oid:1.2.208.176.2.31 R05}">R05</span></p><p><b>subject</b>: <a href="Patient-ea75a3fe-b8f7-4326-9a12-8c950c63dd6f.html">Aya Test Berggren (official) Female, DoB: 2023-05-05 ( urn:oid:1.2.208.176.1.2#0505239996)</a></p><p><b>recordedDate</b>: 2024-07-01</p></div>
          </text>
          <entry>
            <reference value="Condition/41cd63cb-45b7-4b07-a202-f2ab918dec60"/>
          </entry>
        </section>
      </Composition>
    </resource>
  </entry>
  <entry>
    <fullUrl value="http://medcomfhir.dk/ig/conditionlist/Patient/ea75a3fe-b8f7-4326-9a12-8c950c63dd6f"/>
    <resource>
      <Patient>
        <id value="ea75a3fe-b8f7-4326-9a12-8c950c63dd6f"/>
        <meta>
          <profile value="http://medcomfhir.dk/ig/document/StructureDefinition/medcom-document-patient"/>
        </meta>
        <text>
          <status value="generated"/><div xmlns="http://www.w3.org/1999/xhtml"><a name="Patient_ea75a3fe-b8f7-4326-9a12-8c950c63dd6f"> </a><p class="res-header-id"><b>Generated Narrative: Patient ea75a3fe-b8f7-4326-9a12-8c950c63dd6f</b></p><a name="ea75a3fe-b8f7-4326-9a12-8c950c63dd6f"> </a><a name="hcea75a3fe-b8f7-4326-9a12-8c950c63dd6f"> </a><a name="ea75a3fe-b8f7-4326-9a12-8c950c63dd6f-en-US"> </a><div style="display: inline-block; background-color: #d9e0e7; padding: 6px; margin: 4px; border: 1px solid #8da1b4; border-radius: 5px; line-height: 60%"><p style="margin-bottom: 0px"/><p style="margin-bottom: 0px">Profile: <a href="http://medcomfhir.dk/ig/document/1.0.1/StructureDefinition-medcom-document-patient.html">MedComDocumentPatient</a></p></div><p style="border: 1px #661aff solid; background-color: #e6e6ff; padding: 10px;">Aya Test Berggren (official) Female, DoB: 2023-05-05 ( urn:oid:1.2.208.176.1.2#0505239996)</p><hr/></div>
        </text>
        <identifier>
          <system value="urn:oid:1.2.208.176.1.2"/>
          <value value="0505239996"/>
        </identifier>
        <name>
          <use value="official"/>
          <family value="Berggren"/>
          <given value="Aya"/>
          <given value="Test"/>
        </name>
        <gender value="female"/>
        <birthDate value="2023-05-05"/>
      </Patient>
    </resource>
  </entry>
  <entry>
    <fullUrl value="http://medcomfhir.dk/ig/conditionlist/Organization/432aba79-99d5-4e03-801b-2f800fc7a251"/>
    <resource>
      <Organization>
        <id value="432aba79-99d5-4e03-801b-2f800fc7a251"/>
        <meta>
          <profile value="http://medcomfhir.dk/ig/conditionlist/StructureDefinition/medcom-conditionlist-organization"/>
        </meta>
        <text>
          <status value="generated"/><div xmlns="http://www.w3.org/1999/xhtml"><a name="Organization_432aba79-99d5-4e03-801b-2f800fc7a251"> </a><p class="res-header-id"><b>Generated Narrative: Organization 432aba79-99d5-4e03-801b-2f800fc7a251</b></p><a name="432aba79-99d5-4e03-801b-2f800fc7a251"> </a><a name="hc432aba79-99d5-4e03-801b-2f800fc7a251"> </a><a name="432aba79-99d5-4e03-801b-2f800fc7a251-en-US"> </a><div style="display: inline-block; background-color: #d9e0e7; padding: 6px; margin: 4px; border: 1px solid #8da1b4; border-radius: 5px; line-height: 60%"><p style="margin-bottom: 0px"/><p style="margin-bottom: 0px">Profile: <a href="StructureDefinition-medcom-conditionlist-organization.html">MedComConditionListOrganization</a></p></div><p><b>identifier</b>: <code>urn:oid:1.2.208.176.1.1</code>/325381000016008</p><p><b>name</b>: MedCom Testcenter</p></div>
        </text>
        <identifier>
          <system value="urn:oid:1.2.208.176.1.1"/>
          <value value="325381000016008"/>
        </identifier>
        <name value="MedCom Testcenter"/>
      </Organization>
    </resource>
  </entry>
  <entry>
    <fullUrl value="http://medcomfhir.dk/ig/conditionlist/Condition/41cd63cb-45b7-4b07-a202-f2ab918dec60"/>
    <resource>
      <Condition>
        <id value="41cd63cb-45b7-4b07-a202-f2ab918dec60"/>
        <meta>
          <profile value="http://medcomfhir.dk/ig/conditionlist/StructureDefinition/medcom-conditionlist-condition"/>
        </meta>
        <text>
          <status value="generated"/><div xmlns="http://www.w3.org/1999/xhtml"><a name="Condition_41cd63cb-45b7-4b07-a202-f2ab918dec60"> </a><p class="res-header-id"><b>Generated Narrative: Condition 41cd63cb-45b7-4b07-a202-f2ab918dec60</b></p><a name="41cd63cb-45b7-4b07-a202-f2ab918dec60"> </a><a name="hc41cd63cb-45b7-4b07-a202-f2ab918dec60"> </a><a name="41cd63cb-45b7-4b07-a202-f2ab918dec60-en-US"> </a><div style="display: inline-block; background-color: #d9e0e7; padding: 6px; margin: 4px; border: 1px solid #8da1b4; border-radius: 5px; line-height: 60%"><p style="margin-bottom: 0px"/><p style="margin-bottom: 0px">Profile: <a href="StructureDefinition-medcom-conditionlist-condition.html">MedComConditionListCondition</a></p></div><p><b>category</b>: <span title="Codes:{http://snomed.info/sct 15240007}">Current</span></p><p><b>code</b>: <span title="Codes:{urn:oid:1.2.208.176.2.31 R05}">R05</span></p><p><b>subject</b>: <a href="Patient-ea75a3fe-b8f7-4326-9a12-8c950c63dd6f.html">Aya Test Berggren (official) Female, DoB: 2023-05-05 ( urn:oid:1.2.208.176.1.2#0505239996)</a></p><p><b>recordedDate</b>: 2024-07-01</p></div>
        </text>
        <category>
          <coding>
            <system value="http://snomed.info/sct"/>
            <code value="15240007"/>
          </coding>
        </category>
        <code>
          <coding>
            <system value="urn:oid:1.2.208.176.2.31"/>
            <code value="R05"/>
          </coding>
        </code>
        <subject>
          <reference value="Patient/ea75a3fe-b8f7-4326-9a12-8c950c63dd6f"/>
        </subject>
        <recordedDate value="2024-07-01"/>
      </Condition>
    </resource>
  </entry>
</Bundle>