{
  "resourceType" : "DocumentReference",
  "id" : "94e65db8-2f0c-4a2c-a7c9-06a160d59a12",
  "meta" : {
    "profile" : ["http://medcomfhir.dk/ig/document/StructureDefinition/medcom-documentreference"]
  },
  "text" : {
    "status" : "extensions",
    "div" : "<div xmlns=\"http://www.w3.org/1999/xhtml\"><p class=\"res-header-id\"><b>Generated Narrative: DocumentReference 94e65db8-2f0c-4a2c-a7c9-06a160d59a12</b></p><a name=\"94e65db8-2f0c-4a2c-a7c9-06a160d59a12\"> </a><a name=\"hc94e65db8-2f0c-4a2c-a7c9-06a160d59a12\"> </a><a name=\"94e65db8-2f0c-4a2c-a7c9-06a160d59a12-en-US\"> </a><div style=\"display: inline-block; background-color: #d9e0e7; padding: 6px; margin: 4px; border: 1px solid #8da1b4; border-radius: 5px; line-height: 60%\"><p style=\"margin-bottom: 0px\"/><p style=\"margin-bottom: 0px\">Profile: <a href=\"http://medcomfhir.dk/ig/document/1.0.1/StructureDefinition-medcom-documentreference.html\">MedComDocumentReference</a></p></div><p><b>MedCom Document HomeCommunityID</b>: unknown 1.2.208.176.8.1: Common Danish IHE XDS domain. Integrating the Healthcare Enterprise (IHE) cross[X]-enterprise Document Sharing (XDS) domain</p><p><b>MedCom XDS Version ID extension</b>: 1.0.0</p><p><b>masterIdentifier</b>: urn:uuid:bf1bb63b-d405-4dfe-9810-37b16b333a01</p><p><b>identifier</b>: urn:uuid:7c596b9a-112e-4386-ae71-5ecdd3ed7c50</p><p><b>status</b>: Current</p><p><b>type</b>: <span title=\"Codes:{urn:oid:2.16.840.1.113883.6.1 11450-4}\">Problem list - Reported</span></p><p><b>category</b>: <span title=\"Codes:{urn:oid:1.2.208.184.100.9 001}\">Klinisk rapport</span></p><p><b>subject</b>: <a href=\"#hc94e65db8-2f0c-4a2c-a7c9-06a160d59a12/69e475df-20c8-4f54-8cea-9843568205fd\">Elmer Test Hansen (official) Male, DoB: 1947-09-25 ( urn:oid:1.2.208.176.1.2#2509479989)</a></p><p><b>author</b>: <a href=\"#hc94e65db8-2f0c-4a2c-a7c9-06a160d59a12/fd3206c6-c265-49f9-82c3-8b4c96280403\">Organization MedCom Testcenter</a></p><p><b>authenticator</b>: <a href=\"#hc94e65db8-2f0c-4a2c-a7c9-06a160d59a12/1fcad31f-8967-4f49-b6af-7e64082e8fec\">Practitioner Bo Test Vestergaard (official)</a></p><p><b>securityLabel</b>: <span title=\"Codes:\">N</span></p><blockquote><p><b>content</b></p><h3>Attachments</h3><table class=\"grid\"><tr><td style=\"display: none\">-</td><td><b>ContentType</b></td><td><b>Language</b></td><td><b>Url</b></td><td><b>Title</b></td><td><b>Creation</b></td></tr><tr><td style=\"display: none\">*</td><td>application/fhir+json</td><td>Danish</td><td>DOC001.XML</td><td>Diagnoseoversigt for 2509479989</td><td>2024-05-01 12:00:00+0100</td></tr></table><p><b>format</b>: unknown urn:ad:dk:medcom:plr-v1.0:full: DK PLR schema</p></blockquote><h3>Contexts</h3><table class=\"grid\"><tr><td style=\"display: none\">-</td><td><b>FacilityType</b></td><td><b>PracticeSetting</b></td><td><b>SourcePatientInfo</b></td></tr><tr><td style=\"display: none\">*</td><td><span title=\"Codes:{urn:oid:2.16.840.1.113883.6.96 394761003}\">almen lægepraksis</span></td><td><span title=\"Codes:{urn:oid:2.16.840.1.113883.6.96 408443003}\">almen medicin</span></td><td><a href=\"#hc94e65db8-2f0c-4a2c-a7c9-06a160d59a12/69e475df-20c8-4f54-8cea-9843568205fd\">Elmer Test Hansen (official) Male, DoB: 1947-09-25 ( urn:oid:1.2.208.176.1.2#2509479989)</a></td></tr></table><hr/><blockquote><p class=\"res-header-id\"><b>Generated Narrative: Practitioner #1fcad31f-8967-4f49-b6af-7e64082e8fec</b></p><a name=\"94e65db8-2f0c-4a2c-a7c9-06a160d59a12/1fcad31f-8967-4f49-b6af-7e64082e8fec\"> </a><a name=\"hc94e65db8-2f0c-4a2c-a7c9-06a160d59a12/1fcad31f-8967-4f49-b6af-7e64082e8fec\"> </a><a name=\"94e65db8-2f0c-4a2c-a7c9-06a160d59a12/1fcad31f-8967-4f49-b6af-7e64082e8fec-en-US\"> </a><div style=\"display: inline-block; background-color: #d9e0e7; padding: 6px; margin: 4px; border: 1px solid #8da1b4; border-radius: 5px; line-height: 60%\"><p style=\"margin-bottom: 0px\"/><p style=\"margin-bottom: 0px\">Profile: <a href=\"http://medcomfhir.dk/ig/document/1.0.1/StructureDefinition-medcom-document-practitioner.html\">MedComDocumentPractitioner</a></p></div><p><b>name</b>: Bo Test Vestergaard (Official)</p></blockquote><hr/><blockquote><p class=\"res-header-id\"><b>Generated Narrative: Organization #fd3206c6-c265-49f9-82c3-8b4c96280403</b></p><a name=\"94e65db8-2f0c-4a2c-a7c9-06a160d59a12/fd3206c6-c265-49f9-82c3-8b4c96280403\"> </a><a name=\"hc94e65db8-2f0c-4a2c-a7c9-06a160d59a12/fd3206c6-c265-49f9-82c3-8b4c96280403\"> </a><a name=\"94e65db8-2f0c-4a2c-a7c9-06a160d59a12/fd3206c6-c265-49f9-82c3-8b4c96280403-en-US\"> </a><div style=\"display: inline-block; background-color: #d9e0e7; padding: 6px; margin: 4px; border: 1px solid #8da1b4; border-radius: 5px; line-height: 60%\"><p style=\"margin-bottom: 0px\"/><p style=\"margin-bottom: 0px\">Profile: <a href=\"StructureDefinition-medcom-conditionlist-organization.html\">MedComConditionListOrganization</a></p></div><p><b>identifier</b>: <code>urn:oid:1.2.208.176.1.1</code>/325381000016008, <code>urn:oid:1.2.208.176.1.4</code>/091034</p><p><b>name</b>: MedCom Testcenter</p></blockquote><hr/><blockquote><p class=\"res-header-id\"><b>Generated Narrative: Patient #69e475df-20c8-4f54-8cea-9843568205fd</b></p><a name=\"94e65db8-2f0c-4a2c-a7c9-06a160d59a12/69e475df-20c8-4f54-8cea-9843568205fd\"> </a><a name=\"hc94e65db8-2f0c-4a2c-a7c9-06a160d59a12/69e475df-20c8-4f54-8cea-9843568205fd\"> </a><a name=\"94e65db8-2f0c-4a2c-a7c9-06a160d59a12/69e475df-20c8-4f54-8cea-9843568205fd-en-US\"> </a><div style=\"display: inline-block; background-color: #d9e0e7; padding: 6px; margin: 4px; border: 1px solid #8da1b4; border-radius: 5px; line-height: 60%\"><p style=\"margin-bottom: 0px\"/><p style=\"margin-bottom: 0px\">Profile: <a href=\"http://medcomfhir.dk/ig/document/1.0.1/StructureDefinition-medcom-document-patient.html\">MedComDocumentPatient</a></p></div><p style=\"border: 1px #661aff solid; background-color: #e6e6ff; padding: 10px;\">Elmer Test Hansen (official) Male, DoB: 1947-09-25 ( urn:oid:1.2.208.176.1.2#2509479989)</p><hr/></blockquote></div>"
  },
  "contained" : [{
    "resourceType" : "Practitioner",
    "id" : "1fcad31f-8967-4f49-b6af-7e64082e8fec",
    "meta" : {
      "profile" : ["http://medcomfhir.dk/ig/document/StructureDefinition/medcom-document-practitioner"]
    },
    "name" : [{
      "use" : "official",
      "family" : "Vestergaard",
      "given" : ["Bo",
      "Test"]
    }]
  },
  {
    "resourceType" : "Organization",
    "id" : "fd3206c6-c265-49f9-82c3-8b4c96280403",
    "meta" : {
      "profile" : ["http://medcomfhir.dk/ig/conditionlist/StructureDefinition/medcom-conditionlist-organization"]
    },
    "identifier" : [{
      "system" : "urn:oid:1.2.208.176.1.1",
      "value" : "325381000016008"
    },
    {
      "system" : "urn:oid:1.2.208.176.1.4",
      "value" : "091034"
    }],
    "name" : "MedCom Testcenter"
  },
  {
    "resourceType" : "Patient",
    "id" : "69e475df-20c8-4f54-8cea-9843568205fd",
    "meta" : {
      "profile" : ["http://medcomfhir.dk/ig/document/StructureDefinition/medcom-document-patient"]
    },
    "identifier" : [{
      "system" : "urn:oid:1.2.208.176.1.2",
      "value" : "2509479989"
    }],
    "name" : [{
      "use" : "official",
      "family" : "Hansen",
      "given" : ["Elmer",
      "Test"]
    }],
    "gender" : "male",
    "birthDate" : "1947-09-25"
  }],
  "extension" : [{
    "url" : "http://medcomfhir.dk/ig/document/StructureDefinition/medcom-document-homecommunityid-extension",
    "valueCoding" : {
      "system" : "urn:oid:1.2.208.176.8.1",
      "code" : "1.2.208.176.8.1",
      "display" : "Common Danish IHE XDS domain. Integrating the Healthcare Enterprise (IHE) cross[X]-enterprise Document Sharing (XDS) domain"
    }
  },
  {
    "url" : "http://medcomfhir.dk/ig/document/StructureDefinition/medcom-document-version-id-extension",
    "valueString" : "1.0.0"
  }],
  "masterIdentifier" : {
    "value" : "urn:uuid:bf1bb63b-d405-4dfe-9810-37b16b333a01"
  },
  "identifier" : [{
    "value" : "urn:uuid:7c596b9a-112e-4386-ae71-5ecdd3ed7c50"
  }],
  "status" : "current",
  "type" : {
    "coding" : [{
      "system" : "urn:oid:2.16.840.1.113883.6.1",
      "code" : "11450-4",
      "display" : "Problem list - Reported"
    }]
  },
  "category" : [{
    "coding" : [{
      "system" : "urn:oid:1.2.208.184.100.9",
      "code" : "001",
      "display" : "Klinisk rapport"
    }]
  }],
  "subject" : {
    "reference" : "#69e475df-20c8-4f54-8cea-9843568205fd"
  },
  "author" : [{
    "reference" : "#fd3206c6-c265-49f9-82c3-8b4c96280403"
  }],
  "authenticator" : {
    "reference" : "#1fcad31f-8967-4f49-b6af-7e64082e8fec"
  },
  "securityLabel" : [{
    "coding" : [{
      "code" : "N"
    }]
  }],
  "content" : [{
    "attachment" : {
      "contentType" : "application/fhir+json",
      "language" : "da",
      "url" : "DOC001.XML",
      "title" : "Diagnoseoversigt for 2509479989",
      "creation" : "2024-05-01T12:00:00+01:00"
    },
    "format" : {
      "system" : "urn:oid:1.2.208.184.100.10",
      "code" : "urn:ad:dk:medcom:plr-v1.0:full",
      "display" : "DK PLR schema"
    }
  }],
  "context" : {
    "facilityType" : {
      "coding" : [{
        "system" : "urn:oid:2.16.840.1.113883.6.96",
        "code" : "394761003",
        "display" : "almen lægepraksis"
      }]
    },
    "practiceSetting" : {
      "coding" : [{
        "system" : "urn:oid:2.16.840.1.113883.6.96",
        "code" : "408443003",
        "display" : "almen medicin"
      }]
    },
    "sourcePatientInfo" : {
      "reference" : "#69e475df-20c8-4f54-8cea-9843568205fd"
    }
  }
}