<?xml version="1.0" encoding="UTF-8"?>

<DocumentReference xmlns="http://hl7.org/fhir">
  <id value="94e65db8-2f0c-4a2c-a7c9-06a160d59a12"/>
  <meta>
    <profile value="http://medcomfhir.dk/ig/document/StructureDefinition/medcom-documentreference"/>
  </meta>
  <text>
    <status value="extensions"/><div xmlns="http://www.w3.org/1999/xhtml"><p class="res-header-id"><b>Generated Narrative: DocumentReference 94e65db8-2f0c-4a2c-a7c9-06a160d59a12</b></p><a name="94e65db8-2f0c-4a2c-a7c9-06a160d59a12"> </a><a name="hc94e65db8-2f0c-4a2c-a7c9-06a160d59a12"> </a><a name="94e65db8-2f0c-4a2c-a7c9-06a160d59a12-en-US"> </a><div style="display: inline-block; background-color: #d9e0e7; padding: 6px; margin: 4px; border: 1px solid #8da1b4; border-radius: 5px; line-height: 60%"><p style="margin-bottom: 0px"/><p style="margin-bottom: 0px">Profile: <a href="http://medcomfhir.dk/ig/document/1.0.1/StructureDefinition-medcom-documentreference.html">MedComDocumentReference</a></p></div><p><b>MedCom Document HomeCommunityID</b>: unknown 1.2.208.176.8.1: Common Danish IHE XDS domain. Integrating the Healthcare Enterprise (IHE) cross[X]-enterprise Document Sharing (XDS) domain</p><p><b>MedCom XDS Version ID extension</b>: 1.0.0</p><p><b>masterIdentifier</b>: urn:uuid:bf1bb63b-d405-4dfe-9810-37b16b333a01</p><p><b>identifier</b>: urn:uuid:7c596b9a-112e-4386-ae71-5ecdd3ed7c50</p><p><b>status</b>: Current</p><p><b>type</b>: <span title="Codes:{urn:oid:2.16.840.1.113883.6.1 11450-4}">Problem list - Reported</span></p><p><b>category</b>: <span title="Codes:{urn:oid:1.2.208.184.100.9 001}">Klinisk rapport</span></p><p><b>subject</b>: <a href="#hc94e65db8-2f0c-4a2c-a7c9-06a160d59a12/69e475df-20c8-4f54-8cea-9843568205fd">Elmer Test Hansen (official) Male, DoB: 1947-09-25 ( urn:oid:1.2.208.176.1.2#2509479989)</a></p><p><b>author</b>: <a href="#hc94e65db8-2f0c-4a2c-a7c9-06a160d59a12/fd3206c6-c265-49f9-82c3-8b4c96280403">Organization MedCom Testcenter</a></p><p><b>authenticator</b>: <a href="#hc94e65db8-2f0c-4a2c-a7c9-06a160d59a12/1fcad31f-8967-4f49-b6af-7e64082e8fec">Practitioner Bo Test Vestergaard (official)</a></p><p><b>securityLabel</b>: <span title="Codes:">N</span></p><blockquote><p><b>content</b></p><h3>Attachments</h3><table class="grid"><tr><td style="display: none">-</td><td><b>ContentType</b></td><td><b>Language</b></td><td><b>Url</b></td><td><b>Title</b></td><td><b>Creation</b></td></tr><tr><td style="display: none">*</td><td>application/fhir+json</td><td>Danish</td><td>DOC001.XML</td><td>Diagnoseoversigt for 2509479989</td><td>2024-05-01 12:00:00+0100</td></tr></table><p><b>format</b>: unknown urn:ad:dk:medcom:plr-v1.0:full: DK PLR schema</p></blockquote><h3>Contexts</h3><table class="grid"><tr><td style="display: none">-</td><td><b>FacilityType</b></td><td><b>PracticeSetting</b></td><td><b>SourcePatientInfo</b></td></tr><tr><td style="display: none">*</td><td><span title="Codes:{urn:oid:2.16.840.1.113883.6.96 394761003}">almen lægepraksis</span></td><td><span title="Codes:{urn:oid:2.16.840.1.113883.6.96 408443003}">almen medicin</span></td><td><a href="#hc94e65db8-2f0c-4a2c-a7c9-06a160d59a12/69e475df-20c8-4f54-8cea-9843568205fd">Elmer Test Hansen (official) Male, DoB: 1947-09-25 ( urn:oid:1.2.208.176.1.2#2509479989)</a></td></tr></table><hr/><blockquote><p class="res-header-id"><b>Generated Narrative: Practitioner #1fcad31f-8967-4f49-b6af-7e64082e8fec</b></p><a name="94e65db8-2f0c-4a2c-a7c9-06a160d59a12/1fcad31f-8967-4f49-b6af-7e64082e8fec"> </a><a name="hc94e65db8-2f0c-4a2c-a7c9-06a160d59a12/1fcad31f-8967-4f49-b6af-7e64082e8fec"> </a><a name="94e65db8-2f0c-4a2c-a7c9-06a160d59a12/1fcad31f-8967-4f49-b6af-7e64082e8fec-en-US"> </a><div style="display: inline-block; background-color: #d9e0e7; padding: 6px; margin: 4px; border: 1px solid #8da1b4; border-radius: 5px; line-height: 60%"><p style="margin-bottom: 0px"/><p style="margin-bottom: 0px">Profile: <a href="http://medcomfhir.dk/ig/document/1.0.1/StructureDefinition-medcom-document-practitioner.html">MedComDocumentPractitioner</a></p></div><p><b>name</b>: Bo Test Vestergaard (Official)</p></blockquote><hr/><blockquote><p class="res-header-id"><b>Generated Narrative: Organization #fd3206c6-c265-49f9-82c3-8b4c96280403</b></p><a name="94e65db8-2f0c-4a2c-a7c9-06a160d59a12/fd3206c6-c265-49f9-82c3-8b4c96280403"> </a><a name="hc94e65db8-2f0c-4a2c-a7c9-06a160d59a12/fd3206c6-c265-49f9-82c3-8b4c96280403"> </a><a name="94e65db8-2f0c-4a2c-a7c9-06a160d59a12/fd3206c6-c265-49f9-82c3-8b4c96280403-en-US"> </a><div style="display: inline-block; background-color: #d9e0e7; padding: 6px; margin: 4px; border: 1px solid #8da1b4; border-radius: 5px; line-height: 60%"><p style="margin-bottom: 0px"/><p style="margin-bottom: 0px">Profile: <a href="StructureDefinition-medcom-conditionlist-organization.html">MedComConditionListOrganization</a></p></div><p><b>identifier</b>: <code>urn:oid:1.2.208.176.1.1</code>/325381000016008, <code>urn:oid:1.2.208.176.1.4</code>/091034</p><p><b>name</b>: MedCom Testcenter</p></blockquote><hr/><blockquote><p class="res-header-id"><b>Generated Narrative: Patient #69e475df-20c8-4f54-8cea-9843568205fd</b></p><a name="94e65db8-2f0c-4a2c-a7c9-06a160d59a12/69e475df-20c8-4f54-8cea-9843568205fd"> </a><a name="hc94e65db8-2f0c-4a2c-a7c9-06a160d59a12/69e475df-20c8-4f54-8cea-9843568205fd"> </a><a name="94e65db8-2f0c-4a2c-a7c9-06a160d59a12/69e475df-20c8-4f54-8cea-9843568205fd-en-US"> </a><div style="display: inline-block; background-color: #d9e0e7; padding: 6px; margin: 4px; border: 1px solid #8da1b4; border-radius: 5px; line-height: 60%"><p style="margin-bottom: 0px"/><p style="margin-bottom: 0px">Profile: <a href="http://medcomfhir.dk/ig/document/1.0.1/StructureDefinition-medcom-document-patient.html">MedComDocumentPatient</a></p></div><p style="border: 1px #661aff solid; background-color: #e6e6ff; padding: 10px;">Elmer Test Hansen (official) Male, DoB: 1947-09-25 ( urn:oid:1.2.208.176.1.2#2509479989)</p><hr/></blockquote></div>
  </text>
  <contained>
    <Practitioner>
      <id value="1fcad31f-8967-4f49-b6af-7e64082e8fec"/>
      <meta>
        <profile value="http://medcomfhir.dk/ig/document/StructureDefinition/medcom-document-practitioner"/>
      </meta>
      <name>
        <use value="official"/>
        <family value="Vestergaard"/>
        <given value="Bo"/>
        <given value="Test"/>
      </name>
    </Practitioner>
  </contained>
  <contained>
    <Organization>
      <id value="fd3206c6-c265-49f9-82c3-8b4c96280403"/>
      <meta>
        <profile value="http://medcomfhir.dk/ig/conditionlist/StructureDefinition/medcom-conditionlist-organization"/>
      </meta>
      <identifier>
        <system value="urn:oid:1.2.208.176.1.1"/>
        <value value="325381000016008"/>
      </identifier>
      <identifier>
        <system value="urn:oid:1.2.208.176.1.4"/>
        <value value="091034"/>
      </identifier>
      <name value="MedCom Testcenter"/>
    </Organization>
  </contained>
  <contained>
    <Patient>
      <id value="69e475df-20c8-4f54-8cea-9843568205fd"/>
      <meta>
        <profile value="http://medcomfhir.dk/ig/document/StructureDefinition/medcom-document-patient"/>
      </meta>
      <identifier>
        <system value="urn:oid:1.2.208.176.1.2"/>
        <value value="2509479989"/>
      </identifier>
      <name>
        <use value="official"/>
        <family value="Hansen"/>
        <given value="Elmer"/>
        <given value="Test"/>
      </name>
      <gender value="male"/>
      <birthDate value="1947-09-25"/>
    </Patient>
  </contained>
  <extension url="http://medcomfhir.dk/ig/document/StructureDefinition/medcom-document-homecommunityid-extension">
    <valueCoding>
      <system value="urn:oid:1.2.208.176.8.1"/>
      <code value="1.2.208.176.8.1"/>
      <display value="Common Danish IHE XDS domain. Integrating the Healthcare Enterprise (IHE) cross[X]-enterprise Document Sharing (XDS) domain"/>
    </valueCoding>
  </extension>
  <extension url="http://medcomfhir.dk/ig/document/StructureDefinition/medcom-document-version-id-extension">
    <valueString value="1.0.0"/>
  </extension>
  <masterIdentifier>
    <value value="urn:uuid:bf1bb63b-d405-4dfe-9810-37b16b333a01"/>
  </masterIdentifier>
  <identifier>
    <value value="urn:uuid:7c596b9a-112e-4386-ae71-5ecdd3ed7c50"/>
  </identifier>
  <status value="current"/>
  <type>
    <coding>
      <system value="urn:oid:2.16.840.1.113883.6.1"/>
      <code value="11450-4"/>
      <display value="Problem list - Reported"/>
    </coding>
  </type>
  <category>
    <coding>
      <system value="urn:oid:1.2.208.184.100.9"/>
      <code value="001"/>
      <display value="Klinisk rapport"/>
    </coding>
  </category>
  <subject>
    <reference value="#69e475df-20c8-4f54-8cea-9843568205fd"/>
  </subject>
  <author>
    <reference value="#fd3206c6-c265-49f9-82c3-8b4c96280403"/>
  </author>
  <authenticator>
    <reference value="#1fcad31f-8967-4f49-b6af-7e64082e8fec"/>
  </authenticator>
  <securityLabel>
    <coding>
      <code value="N"/>
    </coding>
  </securityLabel>
  <content>
    <attachment>
      <contentType value="application/fhir+json"/>
      <language value="da"/>
      <url value="DOC001.XML"/>
      <title value="Diagnoseoversigt for 2509479989"/>
      <creation value="2024-05-01T12:00:00+01:00"/>
    </attachment>
    <format>
      <system value="urn:oid:1.2.208.184.100.10"/>
      <code value="urn:ad:dk:medcom:plr-v1.0:full"/>
      <display value="DK PLR schema"/>
    </format>
  </content>
  <context>
    <facilityType>
      <coding>
        <system value="urn:oid:2.16.840.1.113883.6.96"/>
        <code value="394761003"/>
        <display value="almen lægepraksis"/>
      </coding>
    </facilityType>
    <practiceSetting>
      <coding>
        <system value="urn:oid:2.16.840.1.113883.6.96"/>
        <code value="408443003"/>
        <display value="almen medicin"/>
      </coding>
    </practiceSetting>
    <sourcePatientInfo>
      <reference value="#69e475df-20c8-4f54-8cea-9843568205fd"/>
    </sourcePatientInfo>
  </context>
</DocumentReference>