<?xml version="1.0" encoding="UTF-8"?>

<Bundle xmlns="http://hl7.org/fhir">
  <id value="d11968f5-4bdf-4b50-b146-a8e1cc890fc3"/>
  <meta>
    <profile value="http://medcomfhir.dk/ig/carecommunication/StructureDefinition/medcom-careCommunication-message"/>
  </meta>
  <type value="message"/>
  <timestamp value="2024-05-05T11:35:00+02:00"/>
  <entry>
    <fullUrl value="https://medcomfhir.dk/ig/carecommunication/MessageHeader/2654e182-cfee-4537-b744-e36231ebe2f3"/>
    <resource>
      <MessageHeader>
        <id value="2654e182-cfee-4537-b744-e36231ebe2f3"/>
        <meta>
          <profile value="http://medcomfhir.dk/ig/carecommunication/StructureDefinition/medcom-careCommunication-messageHeader"/>
        </meta>
        <text>
          <status value="generated"/><div xmlns="http://www.w3.org/1999/xhtml"><a name="MessageHeader_2654e182-cfee-4537-b744-e36231ebe2f3"> </a><p class="res-header-id"><b>Generated Narrative: MessageHeader 2654e182-cfee-4537-b744-e36231ebe2f3</b></p><a name="2654e182-cfee-4537-b744-e36231ebe2f3"> </a><a name="hc2654e182-cfee-4537-b744-e36231ebe2f3"> </a><a name="2654e182-cfee-4537-b744-e36231ebe2f3-da-DK"> </a><p><b>event</b>: <a href="http://medcomfhir.dk/ig/terminology/1.7.0/CodeSystem-medcom-messaging-eventCodes.html#medcom-messaging-eventCodes-care-communication-message">MedComMessagingEventCodes</a> care-communication-message: Care Communication Message</p><h3>Destinations</h3><table class="grid"><tr><td style="display: none">-</td><td><b>Extension</b></td><td><b>Endpoint</b></td><td><b>Receiver</b></td></tr><tr><td style="display: none">*</td><td/><td><a href="https://sor2.sum.dsdn.dk/#id=953741000016009">https://sor2.sum.dsdn.dk/#id=953741000016009</a></td><td><a href="Organization-f20f31cd-5dd2-4a80-ab00-97f7109864a7.html">Organization Plejecenter Herlev</a></td></tr></table><p><b>sender</b>: <a href="Organization-f98ed410-54fe-11ed-bdc3-0242ac120002.html">Organization: identifier = https://www.gs1.org/gln#5790001348120,urn:oid:1.2.208.176.1.1#1042981000016003</a></p><h3>Sources</h3><table class="grid"><tr><td style="display: none">-</td><td><b>Endpoint</b></td></tr><tr><td style="display: none">*</td><td><a href="https://sor2.sum.dsdn.dk/#id=1042981000016003">https://sor2.sum.dsdn.dk/#id=1042981000016003</a></td></tr></table><p><b>focus</b>: <a href="Communication-d148fa55-3201-4a18-a7b0-bce67bf597a6.html">Communication: identifier = urn:uuid:546b19ba-3e50-4da8-b9ec-7caeefad6928; status = unknown; category = Examination Results</a></p><p><b>definition</b>: <code>http://medcomfhir.dk/ig/carecommunication/medcom-careCommunication-message-definition|4.0.0</code></p></div>
        </text>
        <eventCoding>
          <system value="http://medcomfhir.dk/ig/terminology/CodeSystem/medcom-messaging-eventCodes"/>
          <code value="care-communication-message"/>
        </eventCoding>
        <destination>
          <extension url="http://medcomfhir.dk/ig/messaging/StructureDefinition/medcom-messaging-destinationUseExtension">
            <valueCoding>
              <system value="http://medcomfhir.dk/ig/terminology/CodeSystem/medcom-messaging-destinationUse"/>
              <code value="primary"/>
            </valueCoding>
          </extension>
          <endpoint value="https://sor2.sum.dsdn.dk/#id=953741000016009"/>
          <receiver>
            <reference value="Organization/f20f31cd-5dd2-4a80-ab00-97f7109864a7"/>
          </receiver>
        </destination>
        <sender>
          <reference value="Organization/f98ed410-54fe-11ed-bdc3-0242ac120002"/>
        </sender>
        <source>
          <endpoint value="https://sor2.sum.dsdn.dk/#id=1042981000016003"/>
        </source>
        <focus>
          <reference value="Communication/d148fa55-3201-4a18-a7b0-bce67bf597a6"/>
        </focus>
        <definition value="http://medcomfhir.dk/ig/carecommunication/medcom-careCommunication-message-definition|4.0.0"/>
      </MessageHeader>
    </resource>
  </entry>
  <entry>
    <fullUrl value="https://medcomfhir.dk/ig/carecommunication/Patient/22d65545-f98a-4b4d-ba36-51b48b3eb3de"/>
    <resource>
      <Patient>
        <id value="22d65545-f98a-4b4d-ba36-51b48b3eb3de"/>
        <meta>
          <profile value="http://medcomfhir.dk/ig/core/StructureDefinition/medcom-core-patient"/>
        </meta>
        <text>
          <status value="generated"/><div xmlns="http://www.w3.org/1999/xhtml"><a name="Patient_22d65545-f98a-4b4d-ba36-51b48b3eb3de"> </a><p class="res-header-id"><b>Generated Narrative: Patient 22d65545-f98a-4b4d-ba36-51b48b3eb3de</b></p><a name="22d65545-f98a-4b4d-ba36-51b48b3eb3de"> </a><a name="hc22d65545-f98a-4b4d-ba36-51b48b3eb3de"> </a><a name="22d65545-f98a-4b4d-ba36-51b48b3eb3de-da-DK"> </a><p style="border: 1px #661aff solid; background-color: #e6e6ff; padding: 10px;">Bruno Elmer (official) (no stated gender), DoB Unknown ( urn:oid:1.2.208.176.1.2#2509479989)</p><hr/></div>
        </text>
        <identifier>
          <system value="urn:oid:1.2.208.176.1.2"/>
          <value value="2509479989"/>
        </identifier>
        <name>
          <use value="official"/>
          <family value="Elmer"/>
          <given value="Bruno"/>
        </name>
      </Patient>
    </resource>
  </entry>
  <entry>
    <fullUrl value="https://medcomfhir.dk/ig/carecommunication/Communication/d148fa55-3201-4a18-a7b0-bce67bf597a6"/>
    <resource>
      <Communication>
        <id value="d148fa55-3201-4a18-a7b0-bce67bf597a6"/>
        <meta>
          <profile value="http://medcomfhir.dk/ig/carecommunication/StructureDefinition/medcom-careCommunication-communication"/>
        </meta>
        <text>
          <status value="generated"/><div xmlns="http://www.w3.org/1999/xhtml"><a name="Communication_d148fa55-3201-4a18-a7b0-bce67bf597a6"> </a><p class="res-header-id"><b>Generated Narrative: Communication d148fa55-3201-4a18-a7b0-bce67bf597a6</b></p><a name="d148fa55-3201-4a18-a7b0-bce67bf597a6"> </a><a name="hcd148fa55-3201-4a18-a7b0-bce67bf597a6"> </a><a name="d148fa55-3201-4a18-a7b0-bce67bf597a6-da-DK"> </a><p><b>identifier</b>: urn:uuid:546b19ba-3e50-4da8-b9ec-7caeefad6928</p><p><b>status</b>: Unknown</p><p><b>category</b>: <span title="Codes:{http://medcomfhir.dk/ig/terminology/CodeSystem/medcom-careCommunication-categoryCodes examination-results}">Examination Results</span></p><p><b>subject</b>: <a href="Patient-22d65545-f98a-4b4d-ba36-51b48b3eb3de.html">Bruno Elmer (official) (no stated gender), DoB Unknown ( urn:oid:1.2.208.176.1.2#2509479989)</a></p><blockquote><p><b>payload</b></p><p><b>content</b>: Til rette vedkommende. Vi ønsker information om de seneste undersøgelser udført på Bruno. På forhånd tak. Hilsen Michael, sygeplejerske.</p></blockquote><blockquote><p><b>payload</b></p><p><b>content</b>: Hej Michael, Resultaterne for undersøgelsen kommer her. Blodtryk 130/95 mmHg, vægt: 83 kg og højde: 179 cm. Blodprøven påviste ikke tegn på sukkersyge eller vitaminmangel. Se mere i den vedhæftede pdf. Mvh. Emma</p></blockquote><blockquote><p><b>payload</b></p><p><b>content</b>: </p></blockquote><blockquote><p><b>payload</b></p><p><b>content</b>: Mange tak for fremsendte. Kan I desuden hjælpe mig med at finde information vedr. kommunal udredning for sygdommen? / Michael</p></blockquote><blockquote><p><b>payload</b></p><p><b>content</b>: Hej - Jeg håber det er okay, at jeg videresender denne forespørgsel. Kan I hjælpe os med at finde den, af Michael Burns, efterspurgte information. På forhånd tak. /Emma</p></blockquote><blockquote><p><b>payload</b></p><p><b>content</b>: null @ https://medcom.dk/projekter/korrespondancemeddelelse/</p></blockquote><blockquote><p><b>payload</b></p><p><b>content</b>: Hej Emma, Jeg har vedhæftet linket til siden, med den ønskede information. Mvh. Ann Marie, Visitator.</p></blockquote></div>
        </text>
        <identifier>
          <value value="urn:uuid:546b19ba-3e50-4da8-b9ec-7caeefad6928"/>
        </identifier>
        <status value="unknown"/>
        <category>
          <coding>
            <system value="http://medcomfhir.dk/ig/terminology/CodeSystem/medcom-careCommunication-categoryCodes"/>
            <code value="examination-results"/>
          </coding>
        </category>
        <subject>
          <reference value="Patient/22d65545-f98a-4b4d-ba36-51b48b3eb3de"/>
        </subject>
        <payload>
          <extension url="http://medcomfhir.dk/ig/core/StructureDefinition/medcom-core-datetime-extension">
            <valueDateTime value="2024-05-01T12:00:00+02:00"/>
          </extension>
          <extension url="http://medcomfhir.dk/ig/core/StructureDefinition/medcom-core-identifier-extension">
            <valueIdentifier>
              <value value="urn:uuid:24d01288-ad36-4af2-96a8-fd1432dadee1"/>
              <assigner>
                <reference value="Organization/82210440-6826-44fc-9fc8-2a29bab6a5c2"/>
              </assigner>
            </valueIdentifier>
          </extension>
          <extension url="http://medcomfhir.dk/ig/core/StructureDefinition/medcom-core-practitioner-extension">
            <valueReference>
              <reference value="PractitionerRole/b0b3f1f5-3818-4d1c-aa25-cf08b01697a1"/>
            </valueReference>
          </extension>
          <extension url="http://medcomfhir.dk/ig/core/StructureDefinition/medcom-core-contact-extension">
            <valueContactPoint>
              <system value="phone"/>
              <value value="38683868"/>
            </valueContactPoint>
          </extension>
          <contentString value="Til rette vedkommende. Vi ønsker information om de seneste undersøgelser udført på Bruno. På forhånd tak. Hilsen Michael, sygeplejerske."/>
        </payload>
        <payload>
          <extension url="http://medcomfhir.dk/ig/core/StructureDefinition/medcom-core-datetime-extension">
            <valueDateTime value="2024-05-02T11:30:00+02:00"/>
          </extension>
          <extension url="http://medcomfhir.dk/ig/core/StructureDefinition/medcom-core-identifier-extension">
            <valueIdentifier>
              <value value="urn:uuid:a9becf76-fc4c-49aa-8a68-6a0584871fcd"/>
              <assigner>
                <reference value="Organization/f20f31cd-5dd2-4a80-ab00-97f7109864a7"/>
              </assigner>
            </valueIdentifier>
          </extension>
          <extension url="http://medcomfhir.dk/ig/core/StructureDefinition/medcom-core-practitioner-extension">
            <valueReference>
              <reference value="PractitionerRole/2d734f53-c71b-443a-a2d0-41327653b57c"/>
            </valueReference>
          </extension>
          <extension url="http://medcomfhir.dk/ig/core/StructureDefinition/medcom-core-contact-extension">
            <valueContactPoint>
              <system value="phone"/>
              <value value="44527000"/>
            </valueContactPoint>
          </extension>
          <contentString value="Hej Michael, Resultaterne for undersøgelsen kommer her. Blodtryk 130/95 mmHg, vægt: 83 kg og højde: 179 cm. Blodprøven påviste ikke tegn på sukkersyge eller vitaminmangel. Se mere i den vedhæftede pdf. Mvh. Emma"/>
        </payload>
        <payload>
          <extension url="http://medcomfhir.dk/ig/core/StructureDefinition/medcom-core-datetime-extension">
            <valueDateTime value="2024-05-02T11:30:00+02:00"/>
          </extension>
          <extension url="http://medcomfhir.dk/ig/core/StructureDefinition/medcom-core-practitioner-extension">
            <valueReference>
              <reference value="PractitionerRole/2d734f53-c71b-443a-a2d0-41327653b57c"/>
            </valueReference>
          </extension>
          <extension url="http://medcomfhir.dk/ig/core/StructureDefinition/medcom-core-contact-extension">
            <valueContactPoint>
              <system value="phone"/>
              <value value="44527000"/>
            </valueContactPoint>
          </extension>
          <extension url="http://medcomfhir.dk/ig/core/StructureDefinition/medcom-core-identifier-extension">
            <valueIdentifier>
              <value value="urn:uuid:cd422e42-5bad-11ed-9b6a-0242ac120002"/>
              <assigner>
                <reference value="Organization/f20f31cd-5dd2-4a80-ab00-97f7109864a7"/>
              </assigner>
            </valueIdentifier>
          </extension>
          <contentAttachment>
            <contentType value="application/pdf"/>
            <title value="Blodprøveresultater"/>
            <creation value="2024-04-30T08:00:00+02:00"/>
          </contentAttachment>
        </payload>
        <payload>
          <extension url="http://medcomfhir.dk/ig/core/StructureDefinition/medcom-core-datetime-extension">
            <valueDateTime value="2024-05-03T09:25:00+02:00"/>
          </extension>
          <extension url="http://medcomfhir.dk/ig/core/StructureDefinition/medcom-core-identifier-extension">
            <valueIdentifier>
              <value value="urn:uuid:07685582-3a8f-4bf3-bfa0-2f040133e922"/>
              <assigner>
                <reference value="Organization/82210440-6826-44fc-9fc8-2a29bab6a5c2"/>
              </assigner>
            </valueIdentifier>
          </extension>
          <extension url="http://medcomfhir.dk/ig/core/StructureDefinition/medcom-core-practitioner-extension">
            <valueReference>
              <reference value="PractitionerRole/b0b3f1f5-3818-4d1c-aa25-cf08b01697a1"/>
            </valueReference>
          </extension>
          <extension url="http://medcomfhir.dk/ig/core/StructureDefinition/medcom-core-contact-extension">
            <valueContactPoint>
              <system value="phone"/>
              <value value="38683868"/>
            </valueContactPoint>
          </extension>
          <contentString value="Mange tak for fremsendte. Kan I desuden hjælpe mig med at finde information vedr. kommunal udredning for sygdommen? / Michael"/>
        </payload>
        <payload>
          <extension url="http://medcomfhir.dk/ig/core/StructureDefinition/medcom-core-datetime-extension">
            <valueDateTime value="2024-05-04T10:00:00+02:00"/>
          </extension>
          <extension url="http://medcomfhir.dk/ig/core/StructureDefinition/medcom-core-identifier-extension">
            <valueIdentifier>
              <value value="urn:uuid:bc9382ba-30f7-4020-a7c4-cbd18f9b4115"/>
              <assigner>
                <reference value="Organization/487ac745-fd11-4879-9b59-c08c7d47260e"/>
              </assigner>
            </valueIdentifier>
          </extension>
          <extension url="http://medcomfhir.dk/ig/core/StructureDefinition/medcom-core-practitioner-extension">
            <valueReference>
              <reference value="PractitionerRole/2d734f53-c71b-443a-a2d0-41327653b57c"/>
            </valueReference>
          </extension>
          <extension url="http://medcomfhir.dk/ig/core/StructureDefinition/medcom-core-contact-extension">
            <valueContactPoint>
              <system value="phone"/>
              <value value="44527000"/>
            </valueContactPoint>
          </extension>
          <contentString value="Hej - Jeg håber det er okay, at jeg videresender denne forespørgsel. Kan I hjælpe os med at finde den, af Michael Burns, efterspurgte information. På forhånd tak. /Emma"/>
        </payload>
        <payload>
          <extension url="http://medcomfhir.dk/ig/core/StructureDefinition/medcom-core-datetime-extension">
            <valueDateTime value="2024-05-05T11:35:00+02:00"/>
          </extension>
          <extension url="http://medcomfhir.dk/ig/core/StructureDefinition/medcom-core-identifier-extension">
            <valueIdentifier>
              <value value="urn:uuid:ffed9804-35e3-449f-a1c3-0f8ece783dc7"/>
              <assigner>
                <reference value="Organization/f98ed410-54fe-11ed-bdc3-0242ac120002"/>
              </assigner>
            </valueIdentifier>
          </extension>
          <contentAttachment>
            <url value="https://medcom.dk/projekter/korrespondancemeddelelse/"/>
            <title value="Link"/>
          </contentAttachment>
        </payload>
        <payload>
          <extension url="http://medcomfhir.dk/ig/core/StructureDefinition/medcom-core-datetime-extension">
            <valueDateTime value="2024-05-05T11:35:00+02:00"/>
          </extension>
          <extension url="http://medcomfhir.dk/ig/core/StructureDefinition/medcom-core-identifier-extension">
            <valueIdentifier>
              <value value="urn:uuid:76b064ff-e8b0-433f-8b23-780f181dae54"/>
              <assigner>
                <reference value="Organization/f98ed410-54fe-11ed-bdc3-0242ac120002"/>
              </assigner>
            </valueIdentifier>
          </extension>
          <extension url="http://medcomfhir.dk/ig/core/StructureDefinition/medcom-core-practitioner-extension">
            <valueReference>
              <reference value="PractitionerRole/8adda490-63ef-4d97-86f0-14553628e53a"/>
            </valueReference>
          </extension>
          <extension url="http://medcomfhir.dk/ig/core/StructureDefinition/medcom-core-contact-extension">
            <valueContactPoint>
              <system value="phone"/>
              <value value="48456523"/>
            </valueContactPoint>
          </extension>
          <contentString value="Hej Emma, Jeg har vedhæftet linket til siden, med den ønskede information. Mvh. Ann Marie, Visitator."/>
        </payload>
      </Communication>
    </resource>
  </entry>
  <entry>
    <fullUrl value="https://medcomfhir.dk/ig/carecommunication/Practitioner/ed8d4f6a-a2e4-4343-b823-37ca90c1872a"/>
    <resource>
      <Practitioner>
        <id value="ed8d4f6a-a2e4-4343-b823-37ca90c1872a"/>
        <meta>
          <profile value="http://medcomfhir.dk/ig/core/StructureDefinition/medcom-core-practitioner"/>
        </meta>
        <text>
          <status value="generated"/><div xmlns="http://www.w3.org/1999/xhtml"><a name="Practitioner_ed8d4f6a-a2e4-4343-b823-37ca90c1872a"> </a><p class="res-header-id"><b>Generated Narrative: Practitioner ed8d4f6a-a2e4-4343-b823-37ca90c1872a</b></p><a name="ed8d4f6a-a2e4-4343-b823-37ca90c1872a"> </a><a name="hced8d4f6a-a2e4-4343-b823-37ca90c1872a"> </a><a name="ed8d4f6a-a2e4-4343-b823-37ca90c1872a-da-DK"> </a><p><b>name</b>: Ann Marie Wounds </p></div>
        </text>
        <name>
          <family value="Wounds"/>
          <given value="Ann"/>
          <given value="Marie"/>
        </name>
      </Practitioner>
    </resource>
  </entry>
  <entry>
    <fullUrl value="https://medcomfhir.dk/ig/carecommunication/PractitionerRole/8adda490-63ef-4d97-86f0-14553628e53a"/>
    <resource>
      <PractitionerRole>
        <id value="8adda490-63ef-4d97-86f0-14553628e53a"/>
        <meta>
          <profile value="http://medcomfhir.dk/ig/core/StructureDefinition/medcom-core-practitionerrole"/>
        </meta>
        <text>
          <status value="generated"/><div xmlns="http://www.w3.org/1999/xhtml"><a name="PractitionerRole_8adda490-63ef-4d97-86f0-14553628e53a"> </a><p class="res-header-id"><b>Generated Narrative: PractitionerRole 8adda490-63ef-4d97-86f0-14553628e53a</b></p><a name="8adda490-63ef-4d97-86f0-14553628e53a"> </a><a name="hc8adda490-63ef-4d97-86f0-14553628e53a"> </a><a name="8adda490-63ef-4d97-86f0-14553628e53a-da-DK"> </a><p><b>practitioner</b>: <a href="Practitioner-ed8d4f6a-a2e4-4343-b823-37ca90c1872a.html">Practitioner Ann Marie Wounds </a></p><p><b>code</b>: <span title="Codes:">Visitator</span></p></div>
        </text>
        <practitioner>
          <reference value="Practitioner/ed8d4f6a-a2e4-4343-b823-37ca90c1872a"/>
        </practitioner>
        <code>
          <text value="Visitator"/>
        </code>
      </PractitionerRole>
    </resource>
  </entry>
  <entry>
    <fullUrl value="https://medcomfhir.dk/ig/carecommunication/PractitionerRole/2d734f53-c71b-443a-a2d0-41327653b57c"/>
    <resource>
      <PractitionerRole>
        <id value="2d734f53-c71b-443a-a2d0-41327653b57c"/>
        <meta>
          <profile value="http://medcomfhir.dk/ig/core/StructureDefinition/medcom-core-practitionerrole"/>
        </meta>
        <text>
          <status value="generated"/><div xmlns="http://www.w3.org/1999/xhtml"><a name="PractitionerRole_2d734f53-c71b-443a-a2d0-41327653b57c"> </a><p class="res-header-id"><b>Generated Narrative: PractitionerRole 2d734f53-c71b-443a-a2d0-41327653b57c</b></p><a name="2d734f53-c71b-443a-a2d0-41327653b57c"> </a><a name="hc2d734f53-c71b-443a-a2d0-41327653b57c"> </a><a name="2d734f53-c71b-443a-a2d0-41327653b57c-da-DK"> </a><p><b>practitioner</b>: <a href="Practitioner-2a57c93e-de08-423b-b4ee-fcab85cc29bd.html">Practitioner Emma Waters </a></p><p><b>code</b>: <span title="Codes:{http://medcomfhir.dk/ig/terminology/CodeSystem/medcom-core-PractitionerRolesSKSadministrativ sygeplejerske}">Sygeplejerske</span></p></div>
        </text>
        <practitioner>
          <reference value="Practitioner/2a57c93e-de08-423b-b4ee-fcab85cc29bd"/>
        </practitioner>
        <code>
          <coding>
            <system value="http://medcomfhir.dk/ig/terminology/CodeSystem/medcom-core-PractitionerRolesSKSadministrativ"/>
            <code value="sygeplejerske"/>
          </coding>
        </code>
      </PractitionerRole>
    </resource>
  </entry>
  <entry>
    <fullUrl value="https://medcomfhir.dk/ig/carecommunication/Practitioner/2a57c93e-de08-423b-b4ee-fcab85cc29bd"/>
    <resource>
      <Practitioner>
        <id value="2a57c93e-de08-423b-b4ee-fcab85cc29bd"/>
        <meta>
          <profile value="http://medcomfhir.dk/ig/core/StructureDefinition/medcom-core-practitioner"/>
        </meta>
        <text>
          <status value="generated"/><div xmlns="http://www.w3.org/1999/xhtml"><a name="Practitioner_2a57c93e-de08-423b-b4ee-fcab85cc29bd"> </a><p class="res-header-id"><b>Generated Narrative: Practitioner 2a57c93e-de08-423b-b4ee-fcab85cc29bd</b></p><a name="2a57c93e-de08-423b-b4ee-fcab85cc29bd"> </a><a name="hc2a57c93e-de08-423b-b4ee-fcab85cc29bd"> </a><a name="2a57c93e-de08-423b-b4ee-fcab85cc29bd-da-DK"> </a><p><b>name</b>: Emma Waters </p></div>
        </text>
        <name>
          <family value="Waters"/>
          <given value="Emma"/>
        </name>
      </Practitioner>
    </resource>
  </entry>
  <entry>
    <fullUrl value="https://medcomfhir.dk/ig/carecommunication/PractitionerRole/b0b3f1f5-3818-4d1c-aa25-cf08b01697a1"/>
    <resource>
      <PractitionerRole>
        <id value="b0b3f1f5-3818-4d1c-aa25-cf08b01697a1"/>
        <meta>
          <profile value="http://medcomfhir.dk/ig/core/StructureDefinition/medcom-core-practitionerrole"/>
        </meta>
        <text>
          <status value="generated"/><div xmlns="http://www.w3.org/1999/xhtml"><a name="PractitionerRole_b0b3f1f5-3818-4d1c-aa25-cf08b01697a1"> </a><p class="res-header-id"><b>Generated Narrative: PractitionerRole b0b3f1f5-3818-4d1c-aa25-cf08b01697a1</b></p><a name="b0b3f1f5-3818-4d1c-aa25-cf08b01697a1"> </a><a name="hcb0b3f1f5-3818-4d1c-aa25-cf08b01697a1"> </a><a name="b0b3f1f5-3818-4d1c-aa25-cf08b01697a1-da-DK"> </a><p><b>practitioner</b>: <a href="Practitioner-9a274f97-57e9-4847-8022-4dc6152351c3.html">Practitioner Michael Burns </a></p><p><b>code</b>: <span title="Codes:{http://medcomfhir.dk/ig/terminology/CodeSystem/medcom-core-PractitionerRolesSKSadministrativ sygeplejerske}">Sygeplejerske</span></p></div>
        </text>
        <practitioner>
          <reference value="Practitioner/9a274f97-57e9-4847-8022-4dc6152351c3"/>
        </practitioner>
        <code>
          <coding>
            <system value="http://medcomfhir.dk/ig/terminology/CodeSystem/medcom-core-PractitionerRolesSKSadministrativ"/>
            <code value="sygeplejerske"/>
          </coding>
        </code>
      </PractitionerRole>
    </resource>
  </entry>
  <entry>
    <fullUrl value="https://medcomfhir.dk/ig/carecommunication/Practitioner/9a274f97-57e9-4847-8022-4dc6152351c3"/>
    <resource>
      <Practitioner>
        <id value="9a274f97-57e9-4847-8022-4dc6152351c3"/>
        <meta>
          <profile value="http://medcomfhir.dk/ig/core/StructureDefinition/medcom-core-practitioner"/>
        </meta>
        <text>
          <status value="generated"/><div xmlns="http://www.w3.org/1999/xhtml"><a name="Practitioner_9a274f97-57e9-4847-8022-4dc6152351c3"> </a><p class="res-header-id"><b>Generated Narrative: Practitioner 9a274f97-57e9-4847-8022-4dc6152351c3</b></p><a name="9a274f97-57e9-4847-8022-4dc6152351c3"> </a><a name="hc9a274f97-57e9-4847-8022-4dc6152351c3"> </a><a name="9a274f97-57e9-4847-8022-4dc6152351c3-da-DK"> </a><p><b>name</b>: Michael Burns </p></div>
        </text>
        <name>
          <family value="Burns"/>
          <given value="Michael"/>
        </name>
      </Practitioner>
    </resource>
  </entry>
  <entry>
    <fullUrl value="https://medcomfhir.dk/ig/carecommunication/Organization/f98ed410-54fe-11ed-bdc3-0242ac120002"/>
    <resource>
      <Organization>
        <id value="f98ed410-54fe-11ed-bdc3-0242ac120002"/>
        <meta>
          <profile value="http://medcomfhir.dk/ig/messaging/StructureDefinition/medcom-messaging-organization"/>
        </meta>
        <text>
          <status value="generated"/><div xmlns="http://www.w3.org/1999/xhtml"><a name="Organization_f98ed410-54fe-11ed-bdc3-0242ac120002"> </a><p class="res-header-id"><b>Generated Narrative: Organization f98ed410-54fe-11ed-bdc3-0242ac120002</b></p><a name="f98ed410-54fe-11ed-bdc3-0242ac120002"> </a><a name="hcf98ed410-54fe-11ed-bdc3-0242ac120002"> </a><a name="f98ed410-54fe-11ed-bdc3-0242ac120002-da-DK"> </a><p><b>identifier</b>: <code>https://www.gs1.org/gln</code>/5790001348120, <code>urn:oid:1.2.208.176.1.1</code>/1042981000016003</p></div>
        </text>
        <identifier>
          <system value="https://www.gs1.org/gln"/>
          <value value="5790001348120"/>
        </identifier>
        <identifier>
          <system value="urn:oid:1.2.208.176.1.1"/>
          <value value="1042981000016003"/>
        </identifier>
      </Organization>
    </resource>
  </entry>
  <entry>
    <fullUrl value="https://medcomfhir.dk/ig/carecommunication/Organization/f20f31cd-5dd2-4a80-ab00-97f7109864a7"/>
    <resource>
      <Organization>
        <id value="f20f31cd-5dd2-4a80-ab00-97f7109864a7"/>
        <meta>
          <profile value="http://medcomfhir.dk/ig/messaging/StructureDefinition/medcom-messaging-organization"/>
        </meta>
        <text>
          <status value="generated"/><div xmlns="http://www.w3.org/1999/xhtml"><a name="Organization_f20f31cd-5dd2-4a80-ab00-97f7109864a7"> </a><p class="res-header-id"><b>Generated Narrative: Organization f20f31cd-5dd2-4a80-ab00-97f7109864a7</b></p><a name="f20f31cd-5dd2-4a80-ab00-97f7109864a7"> </a><a name="hcf20f31cd-5dd2-4a80-ab00-97f7109864a7"> </a><a name="f20f31cd-5dd2-4a80-ab00-97f7109864a7-da-DK"> </a><p><b>identifier</b>: <code>https://www.gs1.org/gln</code>/5790001348120, <code>urn:oid:1.2.208.176.1.1</code>/953741000016009</p><p><b>name</b>: Plejecenter Herlev</p></div>
        </text>
        <identifier>
          <system value="https://www.gs1.org/gln"/>
          <value value="5790001348120"/>
        </identifier>
        <identifier>
          <system value="urn:oid:1.2.208.176.1.1"/>
          <value value="953741000016009"/>
        </identifier>
        <name value="Plejecenter Herlev"/>
      </Organization>
    </resource>
  </entry>
  <entry>
    <fullUrl value="https://medcomfhir.dk/ig/carecommunication/Organization/82210440-6826-44fc-9fc8-2a29bab6a5c2"/>
    <resource>
      <Organization>
        <id value="82210440-6826-44fc-9fc8-2a29bab6a5c2"/>
        <meta>
          <profile value="http://medcomfhir.dk/ig/messaging/StructureDefinition/medcom-messaging-organization"/>
        </meta>
        <text>
          <status value="generated"/><div xmlns="http://www.w3.org/1999/xhtml"><a name="Organization_82210440-6826-44fc-9fc8-2a29bab6a5c2"> </a><p class="res-header-id"><b>Generated Narrative: Organization 82210440-6826-44fc-9fc8-2a29bab6a5c2</b></p><a name="82210440-6826-44fc-9fc8-2a29bab6a5c2"> </a><a name="hc82210440-6826-44fc-9fc8-2a29bab6a5c2"> </a><a name="82210440-6826-44fc-9fc8-2a29bab6a5c2-da-DK"> </a><p><b>identifier</b>: <code>https://www.gs1.org/gln</code>/5790000209354, <code>urn:oid:1.2.208.176.1.1</code>/265161000016000</p><p><b>name</b>: Hjerteafdelingen på Herlev og Gentofte hospital</p></div>
        </text>
        <identifier>
          <system value="https://www.gs1.org/gln"/>
          <value value="5790000209354"/>
        </identifier>
        <identifier>
          <system value="urn:oid:1.2.208.176.1.1"/>
          <value value="265161000016000"/>
        </identifier>
        <name value="Hjerteafdelingen på Herlev og Gentofte hospital"/>
      </Organization>
    </resource>
  </entry>
  <entry>
    <fullUrl value="https://medcomfhir.dk/ig/carecommunication/Provenance/5c748aa5-64ab-47a9-a74b-033b04a19dae"/>
    <resource>
      <Provenance>
        <id value="5c748aa5-64ab-47a9-a74b-033b04a19dae"/>
        <meta>
          <profile value="http://medcomfhir.dk/ig/carecommunication/StructureDefinition/medcom-careCommunication-provenance"/>
        </meta>
        <text>
          <status value="generated"/><div xmlns="http://www.w3.org/1999/xhtml"><a name="Provenance_5c748aa5-64ab-47a9-a74b-033b04a19dae"> </a><p class="res-header-id"><b>Generated Narrative: Provenance 5c748aa5-64ab-47a9-a74b-033b04a19dae</b></p><a name="5c748aa5-64ab-47a9-a74b-033b04a19dae"> </a><a name="hc5c748aa5-64ab-47a9-a74b-033b04a19dae"> </a><a name="5c748aa5-64ab-47a9-a74b-033b04a19dae-da-DK"> </a><p>Provenance for <a href="MessageHeader-d5bd2111-2576-48d3-84d4-8be0297a038d.html">MessageHeader: event[x] = Care Communication Message (MedComMessagingEventCodes#care-communication-message); definition = http://medcomfhir.dk/ig/carecommunication/medcom-careCommunication-message-definition|4.0.0</a></p><p>Summary</p><table class="grid"><tr><td>Occurrence</td><td>2024-05-02 11:30:00+0200</td></tr><tr><td>Recorded</td><td>2024-05-02 11:30:00+0200</td></tr><tr><td>Activity</td><td><span title="Codes:{http://medcomfhir.dk/ig/terminology/CodeSystem/medcom-messaging-activityCodes reply-message}">A message has been replied to</span></td></tr></table><p><b>Agents</b></p><table class="grid"><tr><td><b>who</b></td></tr><tr><td><a href="Organization-f20f31cd-5dd2-4a80-ab00-97f7109864a7.html">Organization Plejecenter Herlev</a></td></tr></table></div>
        </text>
        <target>
          <reference value="MessageHeader/d5bd2111-2576-48d3-84d4-8be0297a038d"/>
        </target>
        <occurredDateTime value="2024-05-02T11:30:00+02:00"/>
        <recorded value="2024-05-02T11:30:00+02:00"/>
        <activity>
          <coding>
            <system value="http://medcomfhir.dk/ig/terminology/CodeSystem/medcom-messaging-activityCodes"/>
            <code value="reply-message"/>
          </coding>
        </activity>
        <agent>
          <who>
            <reference value="Organization/f20f31cd-5dd2-4a80-ab00-97f7109864a7"/>
          </who>
        </agent>
        <entity>
          <role value="source"/>
          <what>
            <identifier>
              <value value="urn:uuid:a9becf76-fc4c-49aa-8a68-6a0584871fcd"/>
            </identifier>
          </what>
        </entity>
        <entity>
          <role value="revision"/>
          <what>
            <reference value="MessageHeader/42cb9200-f421-4d08-8391-7d51a2503cb4"/>
          </what>
        </entity>
      </Provenance>
    </resource>
  </entry>
  <entry>
    <fullUrl value="https://medcomfhir.dk/ig/carecommunication/Provenance/af9b0255-1bdd-49c7-9d39-d652a587e4b2"/>
    <resource>
      <Provenance>
        <id value="af9b0255-1bdd-49c7-9d39-d652a587e4b2"/>
        <meta>
          <profile value="http://medcomfhir.dk/ig/carecommunication/StructureDefinition/medcom-careCommunication-provenance"/>
        </meta>
        <text>
          <status value="generated"/><div xmlns="http://www.w3.org/1999/xhtml"><a name="Provenance_af9b0255-1bdd-49c7-9d39-d652a587e4b2"> </a><p class="res-header-id"><b>Generated Narrative: Provenance af9b0255-1bdd-49c7-9d39-d652a587e4b2</b></p><a name="af9b0255-1bdd-49c7-9d39-d652a587e4b2"> </a><a name="hcaf9b0255-1bdd-49c7-9d39-d652a587e4b2"> </a><a name="af9b0255-1bdd-49c7-9d39-d652a587e4b2-da-DK"> </a><p>Provenance for <a href="MessageHeader-42cb9200-f421-4d08-8391-7d51a2503cb4.html">MessageHeader: event[x] = Care Communication Message (MedComMessagingEventCodes#care-communication-message); definition = http://medcomfhir.dk/ig/carecommunication/medcom-careCommunication-message-definition|4.0.0</a></p><p>Summary</p><table class="grid"><tr><td>Occurrence</td><td>2024-05-01 12:00:00+0200</td></tr><tr><td>Recorded</td><td>2024-05-01 12:00:00+0200</td></tr><tr><td>Activity</td><td><span title="Codes:{http://medcomfhir.dk/ig/terminology/CodeSystem/medcom-messaging-activityCodes new-message}">A new message has been sent</span></td></tr></table><p><b>Agents</b></p><table class="grid"><tr><td><b>who</b></td></tr><tr><td><a href="Organization-82210440-6826-44fc-9fc8-2a29bab6a5c2.html">Organization Hjerteafdelingen på Herlev og Gentofte hospital</a></td></tr></table></div>
        </text>
        <target>
          <reference value="MessageHeader/42cb9200-f421-4d08-8391-7d51a2503cb4"/>
        </target>
        <occurredDateTime value="2024-05-01T12:00:00+02:00"/>
        <recorded value="2024-05-01T12:00:00+02:00"/>
        <activity>
          <coding>
            <system value="http://medcomfhir.dk/ig/terminology/CodeSystem/medcom-messaging-activityCodes"/>
            <code value="new-message"/>
          </coding>
        </activity>
        <agent>
          <who>
            <reference value="Organization/82210440-6826-44fc-9fc8-2a29bab6a5c2"/>
          </who>
        </agent>
        <entity>
          <role value="source"/>
          <what>
            <identifier>
              <value value="urn:uuid:24d01288-ad36-4af2-96a8-fd1432dadee1"/>
            </identifier>
          </what>
        </entity>
      </Provenance>
    </resource>
  </entry>
  <entry>
    <fullUrl value="https://medcomfhir.dk/ig/carecommunication/Provenance/73232102-649c-4c63-88f5-94ce189b94a7"/>
    <resource>
      <Provenance>
        <id value="73232102-649c-4c63-88f5-94ce189b94a7"/>
        <meta>
          <profile value="http://medcomfhir.dk/ig/carecommunication/StructureDefinition/medcom-careCommunication-provenance"/>
        </meta>
        <text>
          <status value="generated"/><div xmlns="http://www.w3.org/1999/xhtml"><a name="Provenance_73232102-649c-4c63-88f5-94ce189b94a7"> </a><p class="res-header-id"><b>Generated Narrative: Provenance 73232102-649c-4c63-88f5-94ce189b94a7</b></p><a name="73232102-649c-4c63-88f5-94ce189b94a7"> </a><a name="hc73232102-649c-4c63-88f5-94ce189b94a7"> </a><a name="73232102-649c-4c63-88f5-94ce189b94a7-da-DK"> </a><p>Provenance for <a href="MessageHeader-4dff3695-218d-4878-838a-5f23cbba6f82.html">MessageHeader: event[x] = Care Communication Message (MedComMessagingEventCodes#care-communication-message); definition = http://medcomfhir.dk/ig/carecommunication/medcom-careCommunication-message-definition|4.0.0</a></p><p>Summary</p><table class="grid"><tr><td>Occurrence</td><td>2024-05-03 09:25:00+0200</td></tr><tr><td>Recorded</td><td>2024-05-03 09:25:00+0200</td></tr><tr><td>Activity</td><td><span title="Codes:{http://medcomfhir.dk/ig/terminology/CodeSystem/medcom-messaging-activityCodes reply-message}">A message has been replied to</span></td></tr></table><p><b>Agents</b></p><table class="grid"><tr><td><b>who</b></td></tr><tr><td><a href="Organization-82210440-6826-44fc-9fc8-2a29bab6a5c2.html">Organization Hjerteafdelingen på Herlev og Gentofte hospital</a></td></tr></table></div>
        </text>
        <target>
          <reference value="MessageHeader/4dff3695-218d-4878-838a-5f23cbba6f82"/>
        </target>
        <occurredDateTime value="2024-05-03T09:25:00+02:00"/>
        <recorded value="2024-05-03T09:25:00+02:00"/>
        <activity>
          <coding>
            <system value="http://medcomfhir.dk/ig/terminology/CodeSystem/medcom-messaging-activityCodes"/>
            <code value="reply-message"/>
          </coding>
        </activity>
        <agent>
          <who>
            <reference value="Organization/82210440-6826-44fc-9fc8-2a29bab6a5c2"/>
          </who>
        </agent>
        <entity>
          <role value="source"/>
          <what>
            <identifier>
              <value value="urn:uuid:07685582-3a8f-4bf3-bfa0-2f040133e922"/>
            </identifier>
          </what>
        </entity>
        <entity>
          <role value="revision"/>
          <what>
            <reference value="MessageHeader/d5bd2111-2576-48d3-84d4-8be0297a038d"/>
          </what>
        </entity>
      </Provenance>
    </resource>
  </entry>
  <entry>
    <fullUrl value="https://medcomfhir.dk/ig/carecommunication/Provenance/5c689ef2-c6d7-4c74-adb8-303b772532e2"/>
    <resource>
      <Provenance>
        <id value="5c689ef2-c6d7-4c74-adb8-303b772532e2"/>
        <meta>
          <profile value="http://medcomfhir.dk/ig/carecommunication/StructureDefinition/medcom-careCommunication-provenance"/>
        </meta>
        <text>
          <status value="generated"/><div xmlns="http://www.w3.org/1999/xhtml"><a name="Provenance_5c689ef2-c6d7-4c74-adb8-303b772532e2"> </a><p class="res-header-id"><b>Generated Narrative: Provenance 5c689ef2-c6d7-4c74-adb8-303b772532e2</b></p><a name="5c689ef2-c6d7-4c74-adb8-303b772532e2"> </a><a name="hc5c689ef2-c6d7-4c74-adb8-303b772532e2"> </a><a name="5c689ef2-c6d7-4c74-adb8-303b772532e2-da-DK"> </a><p>Provenance for <a href="MessageHeader-aac67161-d0de-4933-a78c-060beafb4814.html">MessageHeader: event[x] = Care Communication Message (MedComMessagingEventCodes#care-communication-message); definition = http://medcomfhir.dk/ig/carecommunication/medcom-careCommunication-message-definition|4.0.0</a></p><p>Summary</p><table class="grid"><tr><td>Occurrence</td><td>2024-05-04 10:00:00+0200</td></tr><tr><td>Recorded</td><td>2024-05-04 10:00:00+0200</td></tr><tr><td>Activity</td><td><span title="Codes:{http://medcomfhir.dk/ig/terminology/CodeSystem/medcom-messaging-activityCodes forward-message}">A message has been forwarded and potentially changed</span></td></tr></table><p><b>Agents</b></p><table class="grid"><tr><td><b>who</b></td></tr><tr><td><a href="Organization-f20f31cd-5dd2-4a80-ab00-97f7109864a7.html">Organization Plejecenter Herlev</a></td></tr></table></div>
        </text>
        <target>
          <reference value="MessageHeader/aac67161-d0de-4933-a78c-060beafb4814"/>
        </target>
        <occurredDateTime value="2024-05-04T10:00:00+02:00"/>
        <recorded value="2024-05-04T10:00:00+02:00"/>
        <activity>
          <coding>
            <system value="http://medcomfhir.dk/ig/terminology/CodeSystem/medcom-messaging-activityCodes"/>
            <code value="forward-message"/>
          </coding>
        </activity>
        <agent>
          <who>
            <reference value="Organization/f20f31cd-5dd2-4a80-ab00-97f7109864a7"/>
          </who>
        </agent>
        <entity>
          <role value="source"/>
          <what>
            <identifier>
              <value value="urn:uuid:22093247-f2f5-4b25-a5b2-f1dcbbc3998b"/>
            </identifier>
          </what>
        </entity>
        <entity>
          <role value="revision"/>
          <what>
            <reference value="MessageHeader/4dff3695-218d-4878-838a-5f23cbba6f82"/>
          </what>
        </entity>
      </Provenance>
    </resource>
  </entry>
  <entry>
    <fullUrl value="https://medcomfhir.dk/ig/carecommunication/Provenance/dbf9c64e-5f36-4b19-a681-58aba32926c2"/>
    <resource>
      <Provenance>
        <id value="dbf9c64e-5f36-4b19-a681-58aba32926c2"/>
        <meta>
          <profile value="http://medcomfhir.dk/ig/carecommunication/StructureDefinition/medcom-careCommunication-provenance"/>
        </meta>
        <text>
          <status value="generated"/><div xmlns="http://www.w3.org/1999/xhtml"><a name="Provenance_dbf9c64e-5f36-4b19-a681-58aba32926c2"> </a><p class="res-header-id"><b>Generated Narrative: Provenance dbf9c64e-5f36-4b19-a681-58aba32926c2</b></p><a name="dbf9c64e-5f36-4b19-a681-58aba32926c2"> </a><a name="hcdbf9c64e-5f36-4b19-a681-58aba32926c2"> </a><a name="dbf9c64e-5f36-4b19-a681-58aba32926c2-da-DK"> </a><p>Provenance for <a href="MessageHeader-2654e182-cfee-4537-b744-e36231ebe2f3.html">MessageHeader: event[x] = Care Communication Message (MedComMessagingEventCodes#care-communication-message); definition = http://medcomfhir.dk/ig/carecommunication/medcom-careCommunication-message-definition|4.0.0</a></p><p>Summary</p><table class="grid"><tr><td>Occurrence</td><td>2024-05-05 11:35:00+0200</td></tr><tr><td>Recorded</td><td>2024-05-05 11:35:00+0200</td></tr><tr><td>Activity</td><td><span title="Codes:{http://medcomfhir.dk/ig/terminology/CodeSystem/medcom-messaging-activityCodes forward-message}">A message has been forwarded and potentially changed</span></td></tr></table><p><b>Agents</b></p><table class="grid"><tr><td><b>who</b></td></tr><tr><td><a href="Organization-f98ed410-54fe-11ed-bdc3-0242ac120002.html">Organization: identifier = https://www.gs1.org/gln#5790001348120,urn:oid:1.2.208.176.1.1#1042981000016003</a></td></tr></table></div>
        </text>
        <target>
          <reference value="MessageHeader/2654e182-cfee-4537-b744-e36231ebe2f3"/>
        </target>
        <occurredDateTime value="2024-05-05T11:35:00+02:00"/>
        <recorded value="2024-05-05T11:35:00+02:00"/>
        <activity>
          <coding>
            <system value="http://medcomfhir.dk/ig/terminology/CodeSystem/medcom-messaging-activityCodes"/>
            <code value="forward-message"/>
          </coding>
        </activity>
        <agent>
          <who>
            <reference value="Organization/f98ed410-54fe-11ed-bdc3-0242ac120002"/>
          </who>
        </agent>
        <entity>
          <role value="source"/>
          <what>
            <identifier>
              <value value="urn:uuid:22093247-f2f5-4b25-a5b2-f1dcbbc3998b"/>
            </identifier>
          </what>
        </entity>
        <entity>
          <role value="revision"/>
          <what>
            <reference value="MessageHeader/4dff3695-218d-4878-838a-5f23cbba6f82"/>
          </what>
        </entity>
      </Provenance>
    </resource>
  </entry>
</Bundle>