{
  "resourceType": "Bundle",
  "id": "256549f7-ed10-422d-8088-f7222b686e46",
  "meta": {
    "profile": [
      "http://medcomfhir.dk/ig/carecommunication/StructureDefinition/medcom-careCommunication-message"
    ]
  },
  "type": "message",
  "timestamp": "2022-10-02T11:30:10Z",
  "entry": [
    {
      "fullUrl": "MessageHeader/d5bd2111-2576-48d3-84d4-8be0297a038d",
      "resource": {
        "resourceType": "MessageHeader",
        "id": "d5bd2111-2576-48d3-84d4-8be0297a038d",
        "meta": {
          "profile": [
            "http://medcomfhir.dk/ig/carecommunication/StructureDefinition/medcom-careCommunication-messageHeader"
          ]
        },
        "text": {
          "status": "generated",
          "div": "<div xmlns=\"http://www.w3.org/1999/xhtml\"><p><b>Generated Narrative: MessageHeader</b><a name=\"d5bd2111-2576-48d3-84d4-8be0297a038d\"> </a></p><div style=\"display: inline-block; background-color: #d9e0e7; padding: 6px; margin: 4px; border: 1px solid #8da1b4; border-radius: 5px; line-height: 60%\"><p style=\"margin-bottom: 0px\">Resource MessageHeader &quot;d5bd2111-2576-48d3-84d4-8be0297a038d&quot; </p><p style=\"margin-bottom: 0px\">Profile: <a href=\"StructureDefinition-medcom-careCommunication-messageHeader.html\">MedComCareCommunicationMessageHeader</a></p></div><p><b>event</b>: Care Communication Message (Details: http://medcomfhir.dk/ig/terminology/CodeSystem/medcom-messaging-eventCodes code care-communication-message = 'Care Communication Message', stated as 'null')</p><h3>Destinations</h3><table class=\"grid\"><tr><td>-</td><td><b>Extension</b></td><td><b>Endpoint</b></td><td><b>Receiver</b></td></tr><tr><td>*</td><td/><td><a href=\"https://sor2.sum.dsdn.dk/#id=265161000016000\">https://sor2.sum.dsdn.dk/#id=265161000016000</a></td><td><a href=\"#Organization_9eb51090-5503-11ed-bdc3-0242ac120002\">See above (Organization/9eb51090-5503-11ed-bdc3-0242ac120002)</a></td></tr></table><p><b>sender</b>: <a href=\"#Organization_b2c584de-5503-11ed-bdc3-0242ac120002\">See above (Organization/b2c584de-5503-11ed-bdc3-0242ac120002)</a></p><h3>Sources</h3><table class=\"grid\"><tr><td>-</td><td><b>Endpoint</b></td></tr><tr><td>*</td><td><a href=\"https://sor2.sum.dsdn.dk/#id=953741000016009\">https://sor2.sum.dsdn.dk/#id=953741000016009</a></td></tr></table><p><b>focus</b>: <a href=\"#Communication_4c712bdc-1558-4125-a854-fa8b3a11f6ed\">See above (Communication/4c712bdc-1558-4125-a854-fa8b3a11f6ed)</a></p></div>"
        },
        "eventCoding": {
          "system": "http://medcomfhir.dk/ig/terminology/CodeSystem/medcom-messaging-eventCodes",
          "code": "care-communication-message"
        },
        "destination": [
          {
            "extension": [
              {
                "url": "http://medcomfhir.dk/ig/messaging/StructureDefinition/medcom-messaging-destinationUseExtension",
                "valueCoding": {
                  "system": "http://medcomfhir.dk/ig/terminology/CodeSystem/medcom-messaging-destinationUse",
                  "code": "primary"
                }
              }
            ],
            "endpoint": "https://sor2.sum.dsdn.dk/#id=265161000016000",
            "receiver": {
              "reference": "Organization/9eb51090-5503-11ed-bdc3-0242ac120002"
            }
          }
        ],
        "sender": {
          "reference": "Organization/b2c584de-5503-11ed-bdc3-0242ac120002"
        },
        "source": {
          "endpoint": "https://sor2.sum.dsdn.dk/#id=953741000016009"
        },
        "focus": [
          {
            "reference": "Communication/4c712bdc-1558-4125-a854-fa8b3a11f6ed"
          }
        ]
      }
    },
    {
      "fullUrl": "Patient/448cd4ee-5504-11ed-bdc3-0242ac120002",
      "resource": {
        "resourceType": "Patient",
        "id": "448cd4ee-5504-11ed-bdc3-0242ac120002",
        "meta": {
          "profile": [
            "http://medcomfhir.dk/ig/core/StructureDefinition/medcom-core-patient"
          ]
        },
        "text": {
          "status": "generated",
          "div": "<div xmlns=\"http://www.w3.org/1999/xhtml\"><p><b>Generated Narrative: Patient</b><a name=\"448cd4ee-5504-11ed-bdc3-0242ac120002\"> </a></p><div style=\"display: inline-block; background-color: #d9e0e7; padding: 6px; margin: 4px; border: 1px solid #8da1b4; border-radius: 5px; line-height: 60%\"><p style=\"margin-bottom: 0px\">Resource Patient &quot;448cd4ee-5504-11ed-bdc3-0242ac120002&quot; </p><p style=\"margin-bottom: 0px\">Profile: <a href=\"http://medcomfhir.dk/ig/core/2.1.0/StructureDefinition-medcom-core-patient.html\">MedComCorePatient</a></p></div><p><b>identifier</b>: id: 2509479989</p><p><b>name</b>: Elmer (OFFICIAL)</p></div>"
        },
        "identifier": [
          {
            "system": "urn:oid:1.2.208.176.1.2",
            "value": "2509479989"
          }
        ],
        "name": [
          {
            "use": "official",
            "family": "Elmer"
          }
        ]
      }
    },
    {
      "fullUrl": "Communication/4c712bdc-1558-4125-a854-fa8b3a11f6ed",
      "resource": {
        "resourceType": "Communication",
        "id": "4c712bdc-1558-4125-a854-fa8b3a11f6ed",
        "meta": {
          "profile": [
            "http://medcomfhir.dk/ig/carecommunication/StructureDefinition/medcom-careCommunication-communication"
          ]
        },
        "text": {
          "status": "extensions",
          "div": "<div xmlns=\"http://www.w3.org/1999/xhtml\"><p><b>Generated Narrative: Communication</b><a name=\"4c712bdc-1558-4125-a854-fa8b3a11f6ed\"> </a></p><div style=\"display: inline-block; background-color: #d9e0e7; padding: 6px; margin: 4px; border: 1px solid #8da1b4; border-radius: 5px; line-height: 60%\"><p style=\"margin-bottom: 0px\">Resource Communication &quot;4c712bdc-1558-4125-a854-fa8b3a11f6ed&quot; </p><p style=\"margin-bottom: 0px\">Profile: <a href=\"StructureDefinition-medcom-careCommunication-communication.html\">MedComCareCommunication</a></p></div><p><b>status</b>: unknown</p><p><b>category</b>: Care Coordination <span style=\"background: LightGoldenRodYellow; margin: 4px; border: 1px solid khaki\"> (<a href=\"http://medcomfhir.dk/ig/terminology/1.1.0/CodeSystem-medcom-careCommunication-categoryCodes.html\">MedComCareCommunicationCategories</a>#carecoordination)</span></p><p><b>subject</b>: <a href=\"#Patient_448cd4ee-5504-11ed-bdc3-0242ac120002\">See above (Patient/448cd4ee-5504-11ed-bdc3-0242ac120002)</a></p><blockquote><p><b>payload</b></p><p><b>PayloadDateTimeExtension</b>: 2022-10-02 11:30:05+0000</p><p><b>PayloadAuthorExtension</b>: <a href=\"#PractitionerRole_8bf63050-5504-11ed-bdc3-0242ac120002\">See above (PractitionerRole/8bf63050-5504-11ed-bdc3-0242ac120002)</a></p><p><b>PayloadAuthorContactExtension</b>: ph: 44527000</p><p><b>content</b>: Thank you for notifying us, we will take care of it...</p></blockquote><blockquote><p><b>payload</b></p><p><b>PayloadDateTimeExtension</b>: 2022-10-01 12:00:05+0000</p><p><b>PayloadAuthorExtension</b>: <a href=\"#PractitionerRole_eda90bde-54f9-11ed-bdc3-0242ac120002\">See above (PractitionerRole/eda90bde-54f9-11ed-bdc3-0242ac120002)</a></p><p><b>PayloadAuthorContactExtension</b>: ph: 38683868</p><p><b>content</b>: Regarding the rehabilitation plan, please notice that...</p></blockquote></div>"
        },
        "status": "unknown",
        "category": [
          {
            "coding": [
              {
                "system": "http://medcomfhir.dk/ig/terminology/CodeSystem/medcom-careCommunication-categoryCodes",
                "code": "carecoordination"
              }
            ]
          }
        ],
        "subject": {
          "reference": "Patient/448cd4ee-5504-11ed-bdc3-0242ac120002"
        },
        "payload": [
          {
            "extension": [
              {
                "url": "http://medcomfhir.dk/ig/carecommunication/StructureDefinition/medcom-carecommunication-datetime-extension",
                "valueDateTime": "2022-10-02T11:30:05Z"
              },
              {
                "url": "http://medcomfhir.dk/ig/carecommunication/StructureDefinition/medcom-carecommunication-author-extension",
                "valueReference": {
                  "reference": "PractitionerRole/8bf63050-5504-11ed-bdc3-0242ac120002"
                }
              },
              {
                "url": "http://medcomfhir.dk/ig/carecommunication/StructureDefinition/medcom-carecommunication-author-contact-extension",
                "valueContactPoint": {
                  "system": "phone",
                  "value": "44527000"
                }
              }
            ],
            "contentString": "Thank you for notifying us, we will take care of it..."
          },
          {
            "extension": [
              {
                "url": "http://medcomfhir.dk/ig/carecommunication/StructureDefinition/medcom-carecommunication-datetime-extension",
                "valueDateTime": "2022-10-01T12:00:05Z"
              },
              {
                "url": "http://medcomfhir.dk/ig/carecommunication/StructureDefinition/medcom-carecommunication-author-extension",
                "valueReference": {
                  "reference": "PractitionerRole/eda90bde-54f9-11ed-bdc3-0242ac120002"
                }
              },
              {
                "url": "http://medcomfhir.dk/ig/carecommunication/StructureDefinition/medcom-carecommunication-author-contact-extension",
                "valueContactPoint": {
                  "system": "phone",
                  "value": "38683868"
                }
              }
            ],
            "contentString": "Regarding the rehabilitation plan, please notice that..."
          }
        ]
      }
    },
    {
      "fullUrl": "PractitionerRole/8bf63050-5504-11ed-bdc3-0242ac120002",
      "resource": {
        "resourceType": "PractitionerRole",
        "id": "8bf63050-5504-11ed-bdc3-0242ac120002",
        "meta": {
          "profile": [
            "http://medcomfhir.dk/ig/core/StructureDefinition/medcom-core-practitionerrole"
          ]
        },
        "text": {
          "status": "generated",
          "div": "<div xmlns=\"http://www.w3.org/1999/xhtml\"><p><b>Generated Narrative: PractitionerRole</b><a name=\"8bf63050-5504-11ed-bdc3-0242ac120002\"> </a></p><div style=\"display: inline-block; background-color: #d9e0e7; padding: 6px; margin: 4px; border: 1px solid #8da1b4; border-radius: 5px; line-height: 60%\"><p style=\"margin-bottom: 0px\">Resource PractitionerRole &quot;8bf63050-5504-11ed-bdc3-0242ac120002&quot; </p><p style=\"margin-bottom: 0px\">Profile: <a href=\"http://medcomfhir.dk/ig/core/2.1.0/StructureDefinition-medcom-core-practitionerrole.html\">MedComCorePractitionerRole</a></p></div><p><b>practitioner</b>: <a href=\"#Practitioner_7ffff970-5504-11ed-bdc3-0242ac120002\">See above (Practitioner/7ffff970-5504-11ed-bdc3-0242ac120002)</a></p><p><b>code</b>: Sygeplejerske <span style=\"background: LightGoldenRodYellow; margin: 4px; border: 1px solid khaki\"> (<a href=\"http://medcomfhir.dk/ig/terminology/1.1.0/CodeSystem-medcom-core-PractitionerRolesSKSadministrativ.html\">MedComCorePractitionerRolesSKSadministrativ</a>#sygeplejerske)</span></p></div>"
        },
        "practitioner": {
          "reference": "Practitioner/7ffff970-5504-11ed-bdc3-0242ac120002"
        },
        "code": [
          {
            "coding": [
              {
                "system": "http://medcomfhir.dk/ig/terminology/CodeSystem/medcom-core-PractitionerRolesSKSadministrativ",
                "code": "sygeplejerske"
              }
            ]
          }
        ]
      }
    },
    {
      "fullUrl": "Practitioner/7ffff970-5504-11ed-bdc3-0242ac120002",
      "resource": {
        "resourceType": "Practitioner",
        "id": "7ffff970-5504-11ed-bdc3-0242ac120002",
        "meta": {
          "profile": [
            "http://medcomfhir.dk/ig/core/StructureDefinition/medcom-core-practitioner"
          ]
        },
        "text": {
          "status": "generated",
          "div": "<div xmlns=\"http://www.w3.org/1999/xhtml\"><p><b>Generated Narrative: Practitioner</b><a name=\"7ffff970-5504-11ed-bdc3-0242ac120002\"> </a></p><div style=\"display: inline-block; background-color: #d9e0e7; padding: 6px; margin: 4px; border: 1px solid #8da1b4; border-radius: 5px; line-height: 60%\"><p style=\"margin-bottom: 0px\">Resource Practitioner &quot;7ffff970-5504-11ed-bdc3-0242ac120002&quot; </p><p style=\"margin-bottom: 0px\">Profile: <a href=\"http://medcomfhir.dk/ig/core/2.1.0/StructureDefinition-medcom-core-practitioner.html\">MedComCorePractitioner</a></p></div><p><b>name</b>: Emma Waters </p></div>"
        },
        "name": [
          {
            "family": "Waters",
            "given": [
              "Emma"
            ]
          }
        ]
      }
    },
    {
      "fullUrl": "PractitionerRole/eda90bde-54f9-11ed-bdc3-0242ac120002",
      "resource": {
        "resourceType": "PractitionerRole",
        "id": "eda90bde-54f9-11ed-bdc3-0242ac120002",
        "meta": {
          "profile": [
            "http://medcomfhir.dk/ig/core/StructureDefinition/medcom-core-practitionerrole"
          ]
        },
        "text": {
          "status": "generated",
          "div": "<div xmlns=\"http://www.w3.org/1999/xhtml\"><p><b>Generated Narrative: PractitionerRole</b><a name=\"eda90bde-54f9-11ed-bdc3-0242ac120002\"> </a></p><div style=\"display: inline-block; background-color: #d9e0e7; padding: 6px; margin: 4px; border: 1px solid #8da1b4; border-radius: 5px; line-height: 60%\"><p style=\"margin-bottom: 0px\">Resource PractitionerRole &quot;eda90bde-54f9-11ed-bdc3-0242ac120002&quot; </p><p style=\"margin-bottom: 0px\">Profile: <a href=\"http://medcomfhir.dk/ig/core/2.1.0/StructureDefinition-medcom-core-practitionerrole.html\">MedComCorePractitionerRole</a></p></div><p><b>practitioner</b>: <a href=\"#Practitioner_58c811a5-4082-44eb-9d66-ccbb112d4973\">See above (Practitioner/58c811a5-4082-44eb-9d66-ccbb112d4973)</a></p><p><b>code</b>: Sygeplejerske <span style=\"background: LightGoldenRodYellow; margin: 4px; border: 1px solid khaki\"> (<a href=\"http://medcomfhir.dk/ig/terminology/1.1.0/CodeSystem-medcom-core-PractitionerRolesSKSadministrativ.html\">MedComCorePractitionerRolesSKSadministrativ</a>#sygeplejerske)</span></p></div>"
        },
        "practitioner": {
          "reference": "Practitioner/58c811a5-4082-44eb-9d66-ccbb112d4973"
        },
        "code": [
          {
            "coding": [
              {
                "system": "http://medcomfhir.dk/ig/terminology/CodeSystem/medcom-core-PractitionerRolesSKSadministrativ",
                "code": "sygeplejerske"
              }
            ]
          }
        ]
      }
    },
    {
      "fullUrl": "Practitioner/58c811a5-4082-44eb-9d66-ccbb112d4973",
      "resource": {
        "resourceType": "Practitioner",
        "id": "58c811a5-4082-44eb-9d66-ccbb112d4973",
        "meta": {
          "profile": [
            "http://medcomfhir.dk/ig/core/StructureDefinition/medcom-core-practitioner"
          ]
        },
        "text": {
          "status": "generated",
          "div": "<div xmlns=\"http://www.w3.org/1999/xhtml\"><p><b>Generated Narrative: Practitioner</b><a name=\"58c811a5-4082-44eb-9d66-ccbb112d4973\"> </a></p><div style=\"display: inline-block; background-color: #d9e0e7; padding: 6px; margin: 4px; border: 1px solid #8da1b4; border-radius: 5px; line-height: 60%\"><p style=\"margin-bottom: 0px\">Resource Practitioner &quot;58c811a5-4082-44eb-9d66-ccbb112d4973&quot; </p><p style=\"margin-bottom: 0px\">Profile: <a href=\"http://medcomfhir.dk/ig/core/2.1.0/StructureDefinition-medcom-core-practitioner.html\">MedComCorePractitioner</a></p></div><p><b>name</b>: Michael Burns </p></div>"
        },
        "name": [
          {
            "family": "Burns",
            "given": [
              "Michael"
            ]
          }
        ]
      }
    },
    {
      "fullUrl": "Organization/9eb51090-5503-11ed-bdc3-0242ac120002",
      "resource": {
        "resourceType": "Organization",
        "id": "9eb51090-5503-11ed-bdc3-0242ac120002",
        "meta": {
          "profile": [
            "http://medcomfhir.dk/ig/messaging/StructureDefinition/medcom-messaging-organization"
          ]
        },
        "text": {
          "status": "generated",
          "div": "<div xmlns=\"http://www.w3.org/1999/xhtml\"><p><b>Generated Narrative: Organization</b><a name=\"9eb51090-5503-11ed-bdc3-0242ac120002\"> </a></p><div style=\"display: inline-block; background-color: #d9e0e7; padding: 6px; margin: 4px; border: 1px solid #8da1b4; border-radius: 5px; line-height: 60%\"><p style=\"margin-bottom: 0px\">Resource Organization &quot;9eb51090-5503-11ed-bdc3-0242ac120002&quot; </p><p style=\"margin-bottom: 0px\">Profile: <a href=\"http://medcomfhir.dk/ig/messaging/2.0.0/StructureDefinition-medcom-messaging-organization.html\">MedComMessagingOrganization</a></p></div><p><b>identifier</b>: id: 5790000209354, id: 265161000016000</p><p><b>name</b>: Hjerteafdelingen på Herlev og Gentofte hospital</p></div>"
        },
        "identifier": [
          {
            "system": "https://www.gs1.org/gln",
            "value": "5790000209354"
          },
          {
            "system": "urn:oid:1.2.208.176.1.1",
            "value": "265161000016000"
          }
        ],
        "name": "Hjerteafdelingen på Herlev og Gentofte hospital"
      }
    },
    {
      "fullUrl": "Organization/b2c584de-5503-11ed-bdc3-0242ac120002",
      "resource": {
        "resourceType": "Organization",
        "id": "b2c584de-5503-11ed-bdc3-0242ac120002",
        "meta": {
          "profile": [
            "http://medcomfhir.dk/ig/messaging/StructureDefinition/medcom-messaging-organization"
          ]
        },
        "text": {
          "status": "generated",
          "div": "<div xmlns=\"http://www.w3.org/1999/xhtml\"><p><b>Generated Narrative: Organization</b><a name=\"b2c584de-5503-11ed-bdc3-0242ac120002\"> </a></p><div style=\"display: inline-block; background-color: #d9e0e7; padding: 6px; margin: 4px; border: 1px solid #8da1b4; border-radius: 5px; line-height: 60%\"><p style=\"margin-bottom: 0px\">Resource Organization &quot;b2c584de-5503-11ed-bdc3-0242ac120002&quot; </p><p style=\"margin-bottom: 0px\">Profile: <a href=\"http://medcomfhir.dk/ig/messaging/2.0.0/StructureDefinition-medcom-messaging-organization.html\">MedComMessagingOrganization</a></p></div><p><b>identifier</b>: id: 5790001348120, id: 953741000016009</p><p><b>name</b>: Plejecenter Herlev</p></div>"
        },
        "identifier": [
          {
            "system": "https://www.gs1.org/gln",
            "value": "5790001348120"
          },
          {
            "system": "urn:oid:1.2.208.176.1.1",
            "value": "953741000016009"
          }
        ],
        "name": "Plejecenter Herlev"
      }
    },
    {
      "fullUrl": "Provenance/30c0f779-783f-46b2-b38f-faebd2bedb3f",
      "resource": {
        "resourceType": "Provenance",
        "id": "30c0f779-783f-46b2-b38f-faebd2bedb3f",
        "meta": {
          "profile": [
            "http://medcomfhir.dk/ig/messaging/StructureDefinition/medcom-messaging-provenance"
          ]
        },
        "text": {
          "status": "generated",
          "div": "<div xmlns=\"http://www.w3.org/1999/xhtml\"><p><b>Generated Narrative: Provenance</b><a name=\"30c0f779-783f-46b2-b38f-faebd2bedb3f\"> </a></p><div style=\"display: inline-block; background-color: #d9e0e7; padding: 6px; margin: 4px; border: 1px solid #8da1b4; border-radius: 5px; line-height: 60%\"><p style=\"margin-bottom: 0px\">Resource Provenance &quot;30c0f779-783f-46b2-b38f-faebd2bedb3f&quot; </p><p style=\"margin-bottom: 0px\">Profile: <a href=\"http://medcomfhir.dk/ig/messaging/2.0.0/StructureDefinition-medcom-messaging-provenance.html\">MedComMessagingProvenance</a></p></div><p><b>target</b>: <a href=\"#MessageHeader_d5bd2111-2576-48d3-84d4-8be0297a038d\">See above (MessageHeader/d5bd2111-2576-48d3-84d4-8be0297a038d)</a></p><p><b>occurred</b>: 2022-10-02 11:30:11+0000</p><p><b>recorded</b>: 02-10-2022 13:30:11</p><p><b>activity</b>: A message has been replied to <span style=\"background: LightGoldenRodYellow; margin: 4px; border: 1px solid khaki\"> (<a href=\"http://medcomfhir.dk/ig/terminology/1.1.0/CodeSystem-medcom-messaging-activityCodes.html\">MedComMessagingActivityCodes</a>#reply-message)</span></p><h3>Agents</h3><table class=\"grid\"><tr><td>-</td><td><b>Who</b></td></tr><tr><td>*</td><td><a href=\"#Organization_b2c584de-5503-11ed-bdc3-0242ac120002\">See above (Organization/b2c584de-5503-11ed-bdc3-0242ac120002)</a></td></tr></table><h3>Entities</h3><table class=\"grid\"><tr><td>-</td><td><b>Role</b></td><td><b>What</b></td></tr><tr><td>*</td><td>revision</td><td><a href=\"MessageHeader-42cb9200-f421-4d08-8391-7d51a2503cb4.html\">MessageHeader/42cb9200-f421-4d08-8391-7d51a2503cb4</a></td></tr></table></div>"
        },
        "target": [
          {
            "reference": "MessageHeader/d5bd2111-2576-48d3-84d4-8be0297a038d"
          }
        ],
        "occurredDateTime": "2022-10-02T11:30:11Z",
        "recorded": "2022-10-02T11:30:11Z",
        "activity": {
          "coding": [
            {
              "system": "http://medcomfhir.dk/ig/terminology/CodeSystem/medcom-messaging-activityCodes",
              "code": "reply-message"
            }
          ]
        },
        "agent": [
          {
            "who": {
              "reference": "Organization/b2c584de-5503-11ed-bdc3-0242ac120002"
            }
          }
        ],
        "entity": [
          {
            "role": "revision",
            "what": {
              "reference": "MessageHeader/42cb9200-f421-4d08-8391-7d51a2503cb4"
            }
          }
        ]
      }
    },
    {
      "fullUrl": "Provenance/4c284936-5454-4116-95fc-3c8eeeed2400",
      "resource": {
        "resourceType": "Provenance",
        "id": "4c284936-5454-4116-95fc-3c8eeeed2400",
        "meta": {
          "profile": [
            "http://medcomfhir.dk/ig/messaging/StructureDefinition/medcom-messaging-provenance"
          ]
        },
        "text": {
          "status": "generated",
          "div": "<div xmlns=\"http://www.w3.org/1999/xhtml\"><p><b>Generated Narrative: Provenance</b><a name=\"4c284936-5454-4116-95fc-3c8eeeed2400\"> </a></p><div style=\"display: inline-block; background-color: #d9e0e7; padding: 6px; margin: 4px; border: 1px solid #8da1b4; border-radius: 5px; line-height: 60%\"><p style=\"margin-bottom: 0px\">Resource Provenance &quot;4c284936-5454-4116-95fc-3c8eeeed2400&quot; </p><p style=\"margin-bottom: 0px\">Profile: <a href=\"http://medcomfhir.dk/ig/messaging/2.0.0/StructureDefinition-medcom-messaging-provenance.html\">MedComMessagingProvenance</a></p></div><p><b>target</b>: <a href=\"MessageHeader-42cb9200-f421-4d08-8391-7d51a2503cb4.html\">MessageHeader/42cb9200-f421-4d08-8391-7d51a2503cb4</a></p><p><b>occurred</b>: 2022-10-01 12:00:10+0000</p><p><b>recorded</b>: 01-10-2022 14:00:10</p><p><b>activity</b>: A new message has been sent <span style=\"background: LightGoldenRodYellow; margin: 4px; border: 1px solid khaki\"> (<a href=\"http://medcomfhir.dk/ig/terminology/1.1.0/CodeSystem-medcom-messaging-activityCodes.html\">MedComMessagingActivityCodes</a>#new-message)</span></p><h3>Agents</h3><table class=\"grid\"><tr><td>-</td><td><b>Who</b></td></tr><tr><td>*</td><td><a href=\"Organization-o7056980-a8b2-42aa-8a0e-c1fc85d1f40d.html\">Organization/o7056980-a8b2-42aa-8a0e-c1fc85d1f40d</a> &quot;Hjerteafdelingen på Herlev og Gentofte hospital&quot;</td></tr></table></div>"
        },
        "target": [
          {
            "reference": "MessageHeader/42cb9200-f421-4d08-8391-7d51a2503cb4"
          }
        ],
        "occurredDateTime": "2022-10-01T12:00:10Z",
        "recorded": "2022-10-01T12:00:10Z",
        "activity": {
          "coding": [
            {
              "system": "http://medcomfhir.dk/ig/terminology/CodeSystem/medcom-messaging-activityCodes",
              "code": "new-message"
            }
          ]
        },
        "agent": [
          {
            "who": {
              "reference": "Organization/o7056980-a8b2-42aa-8a0e-c1fc85d1f40d"
            }
          }
        ]
      }
    }
  ]
}