{
  "resourceType": "Bundle",
  "id": "37bfbc0c-553d-11ed-bdc3-0242ac120002",
  "meta": {
    "profile": [
      "http://medcomfhir.dk/ig/carecommunication/StructureDefinition/medcom-careCommunication-message"
    ]
  },
  "type": "message",
  "timestamp": "2022-10-01T12:00:10Z",
  "entry": [
    {
      "fullUrl": "MessageHeader/3076d9b0-5521-11ed-bdc3-0242ac120002",
      "resource": {
        "resourceType": "MessageHeader",
        "id": "3076d9b0-5521-11ed-bdc3-0242ac120002",
        "meta": {
          "profile": [
            "http://medcomfhir.dk/ig/carecommunication/StructureDefinition/medcom-careCommunication-messageHeader"
          ]
        },
        "text": {
          "status": "generated",
          "div": "<div xmlns=\"http://www.w3.org/1999/xhtml\"><p><b>Generated Narrative: MessageHeader</b><a name=\"3076d9b0-5521-11ed-bdc3-0242ac120002\"> </a></p><div style=\"display: inline-block; background-color: #d9e0e7; padding: 6px; margin: 4px; border: 1px solid #8da1b4; border-radius: 5px; line-height: 60%\"><p style=\"margin-bottom: 0px\">Resource MessageHeader &quot;3076d9b0-5521-11ed-bdc3-0242ac120002&quot; </p><p style=\"margin-bottom: 0px\">Profile: <a href=\"StructureDefinition-medcom-careCommunication-messageHeader.html\">MedComCareCommunicationMessageHeader</a></p></div><p><b>event</b>: Care Communication Message (Details: http://medcomfhir.dk/ig/terminology/CodeSystem/medcom-messaging-eventCodes code care-communication-message = 'Care Communication Message', stated as 'null')</p><h3>Destinations</h3><table class=\"grid\"><tr><td>-</td><td><b>Extension</b></td><td><b>Endpoint</b></td><td><b>Receiver</b></td></tr><tr><td>*</td><td/><td><a href=\"https://sor2.sum.dsdn.dk/#id=953741000016009\">https://sor2.sum.dsdn.dk/#id=953741000016009</a></td><td><a href=\"#Organization_0e0e7f78-5520-11ed-bdc3-0242ac120002\">See above (Organization/0e0e7f78-5520-11ed-bdc3-0242ac120002)</a></td></tr></table><p><b>sender</b>: <a href=\"#Organization_fd0666dc-551f-11ed-bdc3-0242ac120002\">See above (Organization/fd0666dc-551f-11ed-bdc3-0242ac120002)</a></p><h3>Sources</h3><table class=\"grid\"><tr><td>-</td><td><b>Endpoint</b></td></tr><tr><td>*</td><td><a href=\"https://sor2.sum.dsdn.dk/#id=265161000016000\">https://sor2.sum.dsdn.dk/#id=265161000016000</a></td></tr></table><p><b>focus</b>: <a href=\"#Communication_f54efd18-5520-11ed-bdc3-0242ac120002\">See above (Communication/f54efd18-5520-11ed-bdc3-0242ac120002)</a></p></div>"
        },
        "eventCoding": {
          "system": "http://medcomfhir.dk/ig/terminology/CodeSystem/medcom-messaging-eventCodes",
          "code": "care-communication-message"
        },
        "destination": [
          {
            "extension": [
              {
                "url": "http://medcomfhir.dk/ig/messaging/StructureDefinition/medcom-messaging-destinationUseExtension",
                "valueCoding": {
                  "system": "http://medcomfhir.dk/ig/terminology/CodeSystem/medcom-messaging-destinationUse",
                  "code": "primary"
                }
              }
            ],
            "endpoint": "https://sor2.sum.dsdn.dk/#id=953741000016009",
            "receiver": {
              "reference": "Organization/0e0e7f78-5520-11ed-bdc3-0242ac120002"
            }
          }
        ],
        "sender": {
          "reference": "Organization/fd0666dc-551f-11ed-bdc3-0242ac120002"
        },
        "source": {
          "endpoint": "https://sor2.sum.dsdn.dk/#id=265161000016000"
        },
        "focus": [
          {
            "reference": "Communication/f54efd18-5520-11ed-bdc3-0242ac120002"
          }
        ]
      }
    },
    {
      "fullUrl": "Patient/e8dd504e-551f-11ed-bdc3-0242ac120002",
      "resource": {
        "resourceType": "Patient",
        "id": "e8dd504e-551f-11ed-bdc3-0242ac120002",
        "meta": {
          "profile": [
            "http://medcomfhir.dk/ig/core/StructureDefinition/medcom-core-patient"
          ]
        },
        "text": {
          "status": "generated",
          "div": "<div xmlns=\"http://www.w3.org/1999/xhtml\"><p><b>Generated Narrative: Patient</b><a name=\"e8dd504e-551f-11ed-bdc3-0242ac120002\"> </a></p><div style=\"display: inline-block; background-color: #d9e0e7; padding: 6px; margin: 4px; border: 1px solid #8da1b4; border-radius: 5px; line-height: 60%\"><p style=\"margin-bottom: 0px\">Resource Patient &quot;e8dd504e-551f-11ed-bdc3-0242ac120002&quot; </p><p style=\"margin-bottom: 0px\">Profile: <a href=\"http://medcomfhir.dk/ig/core/2.1.0/StructureDefinition-medcom-core-patient.html\">MedComCorePatient</a></p></div><p><b>identifier</b>: id: 2509479989</p><p><b>name</b>: Elmer (OFFICIAL)</p></div>"
        },
        "identifier": [
          {
            "system": "urn:oid:1.2.208.176.1.2",
            "value": "2509479989"
          }
        ],
        "name": [
          {
            "use": "official",
            "family": "Elmer"
          }
        ]
      }
    },
    {
      "fullUrl": "Communication/f54efd18-5520-11ed-bdc3-0242ac120002",
      "resource": {
        "resourceType": "Communication",
        "id": "f54efd18-5520-11ed-bdc3-0242ac120002",
        "meta": {
          "profile": [
            "http://medcomfhir.dk/ig/carecommunication/StructureDefinition/medcom-careCommunication-communication"
          ]
        },
        "text": {
          "status": "generated",
          "div": "<div xmlns=\"http://www.w3.org/1999/xhtml\"><p><b>Generated Narrative: Communication</b><a name=\"f54efd18-5520-11ed-bdc3-0242ac120002\"> </a></p><div style=\"display: inline-block; background-color: #d9e0e7; padding: 6px; margin: 4px; border: 1px solid #8da1b4; border-radius: 5px; line-height: 60%\"><p style=\"margin-bottom: 0px\">Resource Communication &quot;f54efd18-5520-11ed-bdc3-0242ac120002&quot; </p><p style=\"margin-bottom: 0px\">Profile: <a href=\"StructureDefinition-medcom-careCommunication-communication.html\">MedComCareCommunication</a></p></div><p><b>status</b>: unknown</p><p><b>category</b>: Care Coordination <span style=\"background: LightGoldenRodYellow; margin: 4px; border: 1px solid khaki\"> (<a href=\"http://medcomfhir.dk/ig/terminology/1.1.0/CodeSystem-medcom-careCommunication-categoryCodes.html\">MedComCareCommunicationCategories</a>#carecoordination)</span></p><p><b>subject</b>: <a href=\"#Patient_e8dd504e-551f-11ed-bdc3-0242ac120002\">See above (Patient/e8dd504e-551f-11ed-bdc3-0242ac120002)</a></p><h3>Payloads</h3><table class=\"grid\"><tr><td>-</td><td><b>Extension</b></td><td><b>Content[x]</b></td></tr><tr><td>*</td><td>, , </td><td>We have a question regarding the report of admission...</td></tr></table></div>"
        },
        "status": "unknown",
        "category": [
          {
            "coding": [
              {
                "system": "http://medcomfhir.dk/ig/terminology/CodeSystem/medcom-careCommunication-categoryCodes",
                "code": "carecoordination"
              }
            ]
          }
        ],
        "subject": {
          "reference": "Patient/e8dd504e-551f-11ed-bdc3-0242ac120002"
        },
        "payload": [
          {
            "extension": [
              {
                "url": "http://medcomfhir.dk/ig/carecommunication/StructureDefinition/medcom-carecommunication-datetime-extension",
                "valueDateTime": "2022-10-01T12:00:05Z"
              },
              {
                "url": "http://medcomfhir.dk/ig/carecommunication/StructureDefinition/medcom-carecommunication-author-extension",
                "valueReference": {
                  "reference": "PractitionerRole/2b80d2b8-5520-11ed-bdc3-0242ac120002"
                }
              },
              {
                "url": "http://medcomfhir.dk/ig/carecommunication/StructureDefinition/medcom-carecommunication-author-contact-extension",
                "valueContactPoint": {
                  "system": "phone",
                  "value": "38683868"
                }
              }
            ],
            "contentString": "We have a question regarding the report of admission..."
          }
        ]
      }
    },
    {
      "fullUrl": "PractitionerRole/2b80d2b8-5520-11ed-bdc3-0242ac120002",
      "resource": {
        "resourceType": "PractitionerRole",
        "id": "2b80d2b8-5520-11ed-bdc3-0242ac120002",
        "meta": {
          "profile": [
            "http://medcomfhir.dk/ig/core/StructureDefinition/medcom-core-practitionerrole"
          ]
        },
        "text": {
          "status": "generated",
          "div": "<div xmlns=\"http://www.w3.org/1999/xhtml\"><p><b>Generated Narrative: PractitionerRole</b><a name=\"2b80d2b8-5520-11ed-bdc3-0242ac120002\"> </a></p><div style=\"display: inline-block; background-color: #d9e0e7; padding: 6px; margin: 4px; border: 1px solid #8da1b4; border-radius: 5px; line-height: 60%\"><p style=\"margin-bottom: 0px\">Resource PractitionerRole &quot;2b80d2b8-5520-11ed-bdc3-0242ac120002&quot; </p><p style=\"margin-bottom: 0px\">Profile: <a href=\"http://medcomfhir.dk/ig/core/2.1.0/StructureDefinition-medcom-core-practitionerrole.html\">MedComCorePractitionerRole</a></p></div><p><b>practitioner</b>: <a href=\"#Practitioner_1e2d6388-5520-11ed-bdc3-0242ac120002\">See above (Practitioner/1e2d6388-5520-11ed-bdc3-0242ac120002)</a></p><p><b>code</b>: Sygeplejerske <span style=\"background: LightGoldenRodYellow; margin: 4px; border: 1px solid khaki\"> (<a href=\"http://medcomfhir.dk/ig/terminology/1.1.0/CodeSystem-medcom-core-PractitionerRolesSKSadministrativ.html\">MedComCorePractitionerRolesSKSadministrativ</a>#sygeplejerske)</span></p></div>"
        },
        "practitioner": {
          "reference": "Practitioner/1e2d6388-5520-11ed-bdc3-0242ac120002"
        },
        "code": [
          {
            "coding": [
              {
                "system": "http://medcomfhir.dk/ig/terminology/CodeSystem/medcom-core-PractitionerRolesSKSadministrativ",
                "code": "sygeplejerske"
              }
            ]
          }
        ]
      }
    },
    {
      "fullUrl": "Practitioner/1e2d6388-5520-11ed-bdc3-0242ac120002",
      "resource": {
        "resourceType": "Practitioner",
        "id": "1e2d6388-5520-11ed-bdc3-0242ac120002",
        "meta": {
          "profile": [
            "http://medcomfhir.dk/ig/core/StructureDefinition/medcom-core-practitioner"
          ]
        },
        "text": {
          "status": "generated",
          "div": "<div xmlns=\"http://www.w3.org/1999/xhtml\"><p><b>Generated Narrative: Practitioner</b><a name=\"1e2d6388-5520-11ed-bdc3-0242ac120002\"> </a></p><div style=\"display: inline-block; background-color: #d9e0e7; padding: 6px; margin: 4px; border: 1px solid #8da1b4; border-radius: 5px; line-height: 60%\"><p style=\"margin-bottom: 0px\">Resource Practitioner &quot;1e2d6388-5520-11ed-bdc3-0242ac120002&quot; </p><p style=\"margin-bottom: 0px\">Profile: <a href=\"http://medcomfhir.dk/ig/core/2.1.0/StructureDefinition-medcom-core-practitioner.html\">MedComCorePractitioner</a></p></div><p><b>name</b>: Michael Burns </p></div>"
        },
        "name": [
          {
            "family": "Burns",
            "given": [
              "Michael"
            ]
          }
        ]
      }
    },
    {
      "fullUrl": "Organization/0e0e7f78-5520-11ed-bdc3-0242ac120002",
      "resource": {
        "resourceType": "Organization",
        "id": "0e0e7f78-5520-11ed-bdc3-0242ac120002",
        "meta": {
          "profile": [
            "http://medcomfhir.dk/ig/messaging/StructureDefinition/medcom-messaging-organization"
          ]
        },
        "text": {
          "status": "generated",
          "div": "<div xmlns=\"http://www.w3.org/1999/xhtml\"><p><b>Generated Narrative: Organization</b><a name=\"0e0e7f78-5520-11ed-bdc3-0242ac120002\"> </a></p><div style=\"display: inline-block; background-color: #d9e0e7; padding: 6px; margin: 4px; border: 1px solid #8da1b4; border-radius: 5px; line-height: 60%\"><p style=\"margin-bottom: 0px\">Resource Organization &quot;0e0e7f78-5520-11ed-bdc3-0242ac120002&quot; </p><p style=\"margin-bottom: 0px\">Profile: <a href=\"http://medcomfhir.dk/ig/messaging/2.0.0/StructureDefinition-medcom-messaging-organization.html\">MedComMessagingOrganization</a></p></div><p><b>identifier</b>: id: 5790001348120, id: 953741000016009</p><p><b>name</b>: Plejecenter Herlev</p></div>"
        },
        "identifier": [
          {
            "system": "https://www.gs1.org/gln",
            "value": "5790001348120"
          },
          {
            "system": "urn:oid:1.2.208.176.1.1",
            "value": "953741000016009"
          }
        ],
        "name": "Plejecenter Herlev"
      }
    },
    {
      "fullUrl": "Organization/fd0666dc-551f-11ed-bdc3-0242ac120002",
      "resource": {
        "resourceType": "Organization",
        "id": "fd0666dc-551f-11ed-bdc3-0242ac120002",
        "meta": {
          "profile": [
            "http://medcomfhir.dk/ig/messaging/StructureDefinition/medcom-messaging-organization"
          ]
        },
        "text": {
          "status": "generated",
          "div": "<div xmlns=\"http://www.w3.org/1999/xhtml\"><p><b>Generated Narrative: Organization</b><a name=\"fd0666dc-551f-11ed-bdc3-0242ac120002\"> </a></p><div style=\"display: inline-block; background-color: #d9e0e7; padding: 6px; margin: 4px; border: 1px solid #8da1b4; border-radius: 5px; line-height: 60%\"><p style=\"margin-bottom: 0px\">Resource Organization &quot;fd0666dc-551f-11ed-bdc3-0242ac120002&quot; </p><p style=\"margin-bottom: 0px\">Profile: <a href=\"http://medcomfhir.dk/ig/messaging/2.0.0/StructureDefinition-medcom-messaging-organization.html\">MedComMessagingOrganization</a></p></div><p><b>identifier</b>: id: 5790000209354, id: 265161000016000</p><p><b>name</b>: Hjerteafdelingen på Herlev og Gentofte hospital</p></div>"
        },
        "identifier": [
          {
            "system": "https://www.gs1.org/gln",
            "value": "5790000209354"
          },
          {
            "system": "urn:oid:1.2.208.176.1.1",
            "value": "265161000016000"
          }
        ],
        "name": "Hjerteafdelingen på Herlev og Gentofte hospital"
      }
    },
    {
      "fullUrl": "Provenance/6de0806d-7050-4db8-8003-0c72aee52948",
      "resource": {
        "resourceType": "Provenance",
        "id": "6de0806d-7050-4db8-8003-0c72aee52948",
        "meta": {
          "profile": [
            "http://medcomfhir.dk/ig/messaging/StructureDefinition/medcom-messaging-provenance"
          ]
        },
        "text": {
          "status": "generated",
          "div": "<div xmlns=\"http://www.w3.org/1999/xhtml\"><p><b>Generated Narrative: Provenance</b><a name=\"6de0806d-7050-4db8-8003-0c72aee52948\"> </a></p><div style=\"display: inline-block; background-color: #d9e0e7; padding: 6px; margin: 4px; border: 1px solid #8da1b4; border-radius: 5px; line-height: 60%\"><p style=\"margin-bottom: 0px\">Resource Provenance &quot;6de0806d-7050-4db8-8003-0c72aee52948&quot; </p><p style=\"margin-bottom: 0px\">Profile: <a href=\"http://medcomfhir.dk/ig/messaging/2.0.0/StructureDefinition-medcom-messaging-provenance.html\">MedComMessagingProvenance</a></p></div><p><b>target</b>: <a href=\"#MessageHeader_3076d9b0-5521-11ed-bdc3-0242ac120002\">See above (MessageHeader/3076d9b0-5521-11ed-bdc3-0242ac120002)</a></p><p><b>occurred</b>: 2022-10-01 12:00:11+0000</p><p><b>recorded</b>: 01-10-2022 14:00:11</p><p><b>activity</b>: A message has been replied to <span style=\"background: LightGoldenRodYellow; margin: 4px; border: 1px solid khaki\"> (<a href=\"http://medcomfhir.dk/ig/terminology/1.1.0/CodeSystem-medcom-messaging-activityCodes.html\">MedComMessagingActivityCodes</a>#reply-message)</span></p><h3>Agents</h3><table class=\"grid\"><tr><td>-</td><td><b>Who</b></td></tr><tr><td>*</td><td><a href=\"#Organization_fd0666dc-551f-11ed-bdc3-0242ac120002\">See above (Organization/fd0666dc-551f-11ed-bdc3-0242ac120002)</a></td></tr></table><h3>Entities</h3><table class=\"grid\"><tr><td>-</td><td><b>Role</b></td><td><b>What</b></td></tr><tr><td>*</td><td>revision</td><td><span/></td></tr></table></div>"
        },
        "target": [
          {
            "reference": "MessageHeader/3076d9b0-5521-11ed-bdc3-0242ac120002"
          }
        ],
        "occurredDateTime": "2022-10-01T12:00:11Z",
        "recorded": "2022-10-01T12:00:11Z",
        "activity": {
          "coding": [
            {
              "system": "http://medcomfhir.dk/ig/terminology/CodeSystem/medcom-messaging-activityCodes",
              "code": "reply-message"
            }
          ]
        },
        "agent": [
          {
            "who": {
              "reference": "Organization/fd0666dc-551f-11ed-bdc3-0242ac120002"
            }
          }
        ],
        "entity": [
          {
            "role": "revision",
            "what": {
              "identifier": {
                "value": "B300720181623#5790000121526"
              }
            }
          }
        ]
      }
    }
  ]
}