<?xml version="1.0" encoding="UTF-8"?>

<Bundle xmlns="http://hl7.org/fhir">
  <id value="k7bfbc0c-553d-11ed-bdc3-0242ac120002"/>
  <meta>
    <profile value="http://medcomfhir.dk/ig/carecommunication/StructureDefinition/medcom-careCommunication-message"/>
  </meta>
  <type value="message"/>
  <timestamp value="2024-05-07T18:00:00+01:00"/>
  <entry>
    <fullUrl value="https://medcomfhir.dk/ig/carecommunication/MessageHeader/3076d9b0-5521-11ed-bdc3-0242ac120002"/>
    <resource>
      <MessageHeader>
        <id value="3076d9b0-5521-11ed-bdc3-0242ac120002"/>
        <meta>
          <profile value="http://medcomfhir.dk/ig/carecommunication/StructureDefinition/medcom-careCommunication-messageHeader"/>
        </meta>
        <text>
          <status value="generated"/><div xmlns="http://www.w3.org/1999/xhtml"><a name="MessageHeader_3076d9b0-5521-11ed-bdc3-0242ac120002"> </a><p class="res-header-id"><b>Generated Narrative: MessageHeader 3076d9b0-5521-11ed-bdc3-0242ac120002</b></p><a name="3076d9b0-5521-11ed-bdc3-0242ac120002"> </a><a name="hc3076d9b0-5521-11ed-bdc3-0242ac120002"> </a><a name="hc3076d9b0-5521-11ed-bdc3-0242ac120002-da-DK"> </a><p><b>event</b>: <a href="http://medcomfhir.dk/ig/terminology/1.7.0/CodeSystem-medcom-messaging-eventCodes.html#medcom-messaging-eventCodes-care-communication-message">MedComMessagingEventCodes</a> care-communication-message: Care Communication Message</p><h3>Destinations</h3><table class="grid"><tr><td style="display: none">-</td><td><b>Extension</b></td><td><b>Endpoint</b></td><td><b>Receiver</b></td></tr><tr><td style="display: none">*</td><td/><td><a href="https://sor2.sum.dsdn.dk/#id=953741000016009">https://sor2.sum.dsdn.dk/#id=953741000016009</a></td><td><a href="Organization-ae899cbd-933b-4581-9a16-bd2da73f06a0.html">Organization Plejecenter Herlev</a></td></tr></table><p><b>sender</b>: <a href="Organization-e17d03b8-e7fd-4654-bc9c-cb2eb5dda71f.html">Organization Hjerteafdelingen på Herlev og Gentofte hospital</a></p><h3>Sources</h3><table class="grid"><tr><td style="display: none">-</td><td><b>Endpoint</b></td></tr><tr><td style="display: none">*</td><td><a href="https://sor2.sum.dsdn.dk/#id=265161000016000">https://sor2.sum.dsdn.dk/#id=265161000016000</a></td></tr></table><p><b>focus</b>: <a href="Communication-f54efd18-5520-11ed-bdc3-0242ac120002.html">Communication: identifier = urn:uuid:59aac95e-ca57-4b04-b075-9880b7e6441c; status = unknown; category = Care Coordination</a></p><p><b>definition</b>: <code>http://medcomfhir.dk/ig/carecommunication/medcom-careCommunication-message-definition|4.0.0</code></p></div>
        </text>
        <eventCoding>
          <system value="http://medcomfhir.dk/ig/terminology/CodeSystem/medcom-messaging-eventCodes"/>
          <code value="care-communication-message"/>
        </eventCoding>
        <destination>
          <extension url="http://medcomfhir.dk/ig/messaging/StructureDefinition/medcom-messaging-destinationUseExtension">
            <valueCoding>
              <system value="http://medcomfhir.dk/ig/terminology/CodeSystem/medcom-messaging-destinationUse"/>
              <code value="primary"/>
            </valueCoding>
          </extension>
          <endpoint value="https://sor2.sum.dsdn.dk/#id=953741000016009"/>
          <receiver>
            <reference value="Organization/ae899cbd-933b-4581-9a16-bd2da73f06a0"/>
          </receiver>
        </destination>
        <sender>
          <reference value="Organization/e17d03b8-e7fd-4654-bc9c-cb2eb5dda71f"/>
        </sender>
        <source>
          <endpoint value="https://sor2.sum.dsdn.dk/#id=265161000016000"/>
        </source>
        <focus>
          <reference value="Communication/f54efd18-5520-11ed-bdc3-0242ac120002"/>
        </focus>
        <definition value="http://medcomfhir.dk/ig/carecommunication/medcom-careCommunication-message-definition|4.0.0"/>
      </MessageHeader>
    </resource>
  </entry>
  <entry>
    <fullUrl value="https://medcomfhir.dk/ig/carecommunication/Patient/23ebfcd8-e4f2-4ce8-908b-aa7cfb9ffef5"/>
    <resource>
      <Patient>
        <id value="23ebfcd8-e4f2-4ce8-908b-aa7cfb9ffef5"/>
        <meta>
          <profile value="http://medcomfhir.dk/ig/core/StructureDefinition/medcom-core-patient"/>
        </meta>
        <text>
          <status value="generated"/><div xmlns="http://www.w3.org/1999/xhtml"><a name="Patient_23ebfcd8-e4f2-4ce8-908b-aa7cfb9ffef5"> </a><p class="res-header-id"><b>Generated Narrative: Patient 23ebfcd8-e4f2-4ce8-908b-aa7cfb9ffef5</b></p><a name="23ebfcd8-e4f2-4ce8-908b-aa7cfb9ffef5"> </a><a name="hc23ebfcd8-e4f2-4ce8-908b-aa7cfb9ffef5"> </a><a name="hc23ebfcd8-e4f2-4ce8-908b-aa7cfb9ffef5-da-DK"> </a><p style="border: 1px #661aff solid; background-color: #e6e6ff; padding: 10px;">Elmer (official) (no stated gender), DoB Unknown ( urn:oid:1.2.208.176.1.2#2509479989)</p><hr/></div>
        </text>
        <identifier>
          <system value="urn:oid:1.2.208.176.1.2"/>
          <value value="2509479989"/>
        </identifier>
        <name>
          <use value="official"/>
          <family value="Elmer"/>
        </name>
      </Patient>
    </resource>
  </entry>
  <entry>
    <fullUrl value="https://medcomfhir.dk/ig/carecommunication/Communication/f54efd18-5520-11ed-bdc3-0242ac120002"/>
    <resource>
      <Communication>
        <id value="f54efd18-5520-11ed-bdc3-0242ac120002"/>
        <meta>
          <profile value="http://medcomfhir.dk/ig/carecommunication/StructureDefinition/medcom-careCommunication-communication"/>
        </meta>
        <text>
          <status value="generated"/><div xmlns="http://www.w3.org/1999/xhtml"><a name="Communication_f54efd18-5520-11ed-bdc3-0242ac120002"> </a><p class="res-header-id"><b>Generated Narrative: Communication f54efd18-5520-11ed-bdc3-0242ac120002</b></p><a name="f54efd18-5520-11ed-bdc3-0242ac120002"> </a><a name="hcf54efd18-5520-11ed-bdc3-0242ac120002"> </a><a name="hcf54efd18-5520-11ed-bdc3-0242ac120002-da-DK"> </a><p><b>identifier</b>: urn:uuid:59aac95e-ca57-4b04-b075-9880b7e6441c</p><p><b>status</b>: Unknown</p><p><b>category</b>: <span title="Codes:{http://medcomfhir.dk/ig/terminology/CodeSystem/medcom-careCommunication-categoryCodes carecoordination}">Care Coordination</span></p><p><b>subject</b>: <a href="Patient-23ebfcd8-e4f2-4ce8-908b-aa7cfb9ffef5.html">Elmer (official) (no stated gender), DoB Unknown ( urn:oid:1.2.208.176.1.2#2509479989)</a></p><p><b>encounter</b>: <a href="Encounter-303b2782-e2bf-4780-a8a5-c4b02b0e1c66.html">Encounter: status = in-progress; class = inpatient encounter (ActCode#IMP)</a></p><blockquote><p><b>payload</b></p><p><b>content</b>: We have a question regarding the referal...</p></blockquote></div>
        </text>
        <identifier>
          <value value="urn:uuid:59aac95e-ca57-4b04-b075-9880b7e6441c"/>
        </identifier>
        <status value="unknown"/>
        <category>
          <coding>
            <system value="http://medcomfhir.dk/ig/terminology/CodeSystem/medcom-careCommunication-categoryCodes"/>
            <code value="carecoordination"/>
          </coding>
        </category>
        <subject>
          <reference value="Patient/23ebfcd8-e4f2-4ce8-908b-aa7cfb9ffef5"/>
        </subject>
        <encounter>
          <reference value="Encounter/303b2782-e2bf-4780-a8a5-c4b02b0e1c66"/>
        </encounter>
        <payload>
          <extension url="http://medcomfhir.dk/ig/core/StructureDefinition/medcom-core-datetime-extension">
            <valueDateTime value="2024-05-07T18:00:00+01:00"/>
          </extension>
          <extension url="http://medcomfhir.dk/ig/core/StructureDefinition/medcom-core-identifier-extension">
            <valueIdentifier>
              <value value="urn:uuid:1813b23d-195e-4b28-8221-24247035bf08"/>
              <assigner>
                <reference value="Organization/e17d03b8-e7fd-4654-bc9c-cb2eb5dda71f"/>
              </assigner>
            </valueIdentifier>
          </extension>
          <extension url="http://medcomfhir.dk/ig/core/StructureDefinition/medcom-core-practitioner-extension">
            <valueReference>
              <reference value="PractitionerRole/8dc790ba-8d93-4585-b91c-af8225b0796d"/>
            </valueReference>
          </extension>
          <extension url="http://medcomfhir.dk/ig/core/StructureDefinition/medcom-core-contact-extension">
            <valueContactPoint>
              <system value="phone"/>
              <value value="38683868"/>
            </valueContactPoint>
          </extension>
          <contentString value="We have a question regarding the referal..."/>
        </payload>
      </Communication>
    </resource>
  </entry>
  <entry>
    <fullUrl value="https://medcomfhir.dk/ig/carecommunication/PractitionerRole/8dc790ba-8d93-4585-b91c-af8225b0796d"/>
    <resource>
      <PractitionerRole>
        <id value="8dc790ba-8d93-4585-b91c-af8225b0796d"/>
        <meta>
          <profile value="http://medcomfhir.dk/ig/core/StructureDefinition/medcom-core-practitionerrole"/>
        </meta>
        <text>
          <status value="generated"/><div xmlns="http://www.w3.org/1999/xhtml"><a name="PractitionerRole_8dc790ba-8d93-4585-b91c-af8225b0796d"> </a><p class="res-header-id"><b>Generated Narrative: PractitionerRole 8dc790ba-8d93-4585-b91c-af8225b0796d</b></p><a name="8dc790ba-8d93-4585-b91c-af8225b0796d"> </a><a name="hc8dc790ba-8d93-4585-b91c-af8225b0796d"> </a><a name="hc8dc790ba-8d93-4585-b91c-af8225b0796d-da-DK"> </a><p><b>practitioner</b>: <a href="Practitioner-8659596f-6ef4-421c-9ecd-94b65e4d5ff8.html">Practitioner Michael Burns </a></p><p><b>code</b>: <span title="Codes:{http://medcomfhir.dk/ig/terminology/CodeSystem/medcom-core-PractitionerRolesSKSadministrativ sygeplejerske}">Sygeplejerske</span></p></div>
        </text>
        <practitioner>
          <reference value="Practitioner/8659596f-6ef4-421c-9ecd-94b65e4d5ff8"/>
        </practitioner>
        <code>
          <coding>
            <system value="http://medcomfhir.dk/ig/terminology/CodeSystem/medcom-core-PractitionerRolesSKSadministrativ"/>
            <code value="sygeplejerske"/>
          </coding>
        </code>
      </PractitionerRole>
    </resource>
  </entry>
  <entry>
    <fullUrl value="https://medcomfhir.dk/ig/carecommunication/Practitioner/8659596f-6ef4-421c-9ecd-94b65e4d5ff8"/>
    <resource>
      <Practitioner>
        <id value="8659596f-6ef4-421c-9ecd-94b65e4d5ff8"/>
        <meta>
          <profile value="http://medcomfhir.dk/ig/core/StructureDefinition/medcom-core-practitioner"/>
        </meta>
        <text>
          <status value="generated"/><div xmlns="http://www.w3.org/1999/xhtml"><a name="Practitioner_8659596f-6ef4-421c-9ecd-94b65e4d5ff8"> </a><p class="res-header-id"><b>Generated Narrative: Practitioner 8659596f-6ef4-421c-9ecd-94b65e4d5ff8</b></p><a name="8659596f-6ef4-421c-9ecd-94b65e4d5ff8"> </a><a name="hc8659596f-6ef4-421c-9ecd-94b65e4d5ff8"> </a><a name="hc8659596f-6ef4-421c-9ecd-94b65e4d5ff8-da-DK"> </a><p><b>name</b>: Michael Burns </p></div>
        </text>
        <name>
          <family value="Burns"/>
          <given value="Michael"/>
        </name>
      </Practitioner>
    </resource>
  </entry>
  <entry>
    <fullUrl value="https://medcomfhir.dk/ig/carecommunication/Encounter/303b2782-e2bf-4780-a8a5-c4b02b0e1c66"/>
    <resource>
      <Encounter>
        <id value="303b2782-e2bf-4780-a8a5-c4b02b0e1c66"/>
        <meta>
          <profile value="http://medcomfhir.dk/ig/core/StructureDefinition/medcom-core-encounter"/>
        </meta>
        <text>
          <status value="generated"/><div xmlns="http://www.w3.org/1999/xhtml"><a name="Encounter_303b2782-e2bf-4780-a8a5-c4b02b0e1c66"> </a><p class="res-header-id"><b>Generated Narrative: Encounter 303b2782-e2bf-4780-a8a5-c4b02b0e1c66</b></p><a name="303b2782-e2bf-4780-a8a5-c4b02b0e1c66"> </a><a name="hc303b2782-e2bf-4780-a8a5-c4b02b0e1c66"> </a><a name="hc303b2782-e2bf-4780-a8a5-c4b02b0e1c66-da-DK"> </a><p><b>status</b>: In Progress</p><p><b>class</b>: <a href="http://terminology.hl7.org/5.5.0/CodeSystem-v3-ActCode.html#v3-ActCode-IMP">ActCode</a> IMP: inpatient encounter</p><p><b>subject</b>: <a href="Patient-23ebfcd8-e4f2-4ce8-908b-aa7cfb9ffef5.html">Elmer (official) (no stated gender), DoB Unknown ( urn:oid:1.2.208.176.1.2#2509479989)</a></p><p><b>episodeOfCare</b>: Identifier: <code>https://sor2.sum.dsdn.dk/#id=265161000016000</code>/fc60e762-b13b-5773-865e-67f3907bdcc7</p></div>
        </text>
        <status value="in-progress"/>
        <class>
          <system value="http://terminology.hl7.org/CodeSystem/v3-ActCode"/>
          <code value="IMP"/>
        </class>
        <subject>
          <reference value="Patient/23ebfcd8-e4f2-4ce8-908b-aa7cfb9ffef5"/>
        </subject>
        <episodeOfCare>
          <identifier>
            <system value="https://sor2.sum.dsdn.dk/#id=265161000016000"/>
            <value value="fc60e762-b13b-5773-865e-67f3907bdcc7"/>
          </identifier>
        </episodeOfCare>
      </Encounter>
    </resource>
  </entry>
  <entry>
    <fullUrl value="https://medcomfhir.dk/ig/carecommunication/Organization/ae899cbd-933b-4581-9a16-bd2da73f06a0"/>
    <resource>
      <Organization>
        <id value="ae899cbd-933b-4581-9a16-bd2da73f06a0"/>
        <meta>
          <profile value="http://medcomfhir.dk/ig/messaging/StructureDefinition/medcom-messaging-organization"/>
        </meta>
        <text>
          <status value="generated"/><div xmlns="http://www.w3.org/1999/xhtml"><a name="Organization_ae899cbd-933b-4581-9a16-bd2da73f06a0"> </a><p class="res-header-id"><b>Generated Narrative: Organization ae899cbd-933b-4581-9a16-bd2da73f06a0</b></p><a name="ae899cbd-933b-4581-9a16-bd2da73f06a0"> </a><a name="hcae899cbd-933b-4581-9a16-bd2da73f06a0"> </a><a name="hcae899cbd-933b-4581-9a16-bd2da73f06a0-da-DK"> </a><p><b>identifier</b>: <code>https://www.gs1.org/gln</code>/5790001348120, <code>urn:oid:1.2.208.176.1.1</code>/953741000016009</p><p><b>name</b>: Plejecenter Herlev</p></div>
        </text>
        <identifier>
          <system value="https://www.gs1.org/gln"/>
          <value value="5790001348120"/>
        </identifier>
        <identifier>
          <system value="urn:oid:1.2.208.176.1.1"/>
          <value value="953741000016009"/>
        </identifier>
        <name value="Plejecenter Herlev"/>
      </Organization>
    </resource>
  </entry>
  <entry>
    <fullUrl value="https://medcomfhir.dk/ig/carecommunication/Organization/e17d03b8-e7fd-4654-bc9c-cb2eb5dda71f"/>
    <resource>
      <Organization>
        <id value="e17d03b8-e7fd-4654-bc9c-cb2eb5dda71f"/>
        <meta>
          <profile value="http://medcomfhir.dk/ig/messaging/StructureDefinition/medcom-messaging-organization"/>
        </meta>
        <text>
          <status value="generated"/><div xmlns="http://www.w3.org/1999/xhtml"><a name="Organization_e17d03b8-e7fd-4654-bc9c-cb2eb5dda71f"> </a><p class="res-header-id"><b>Generated Narrative: Organization e17d03b8-e7fd-4654-bc9c-cb2eb5dda71f</b></p><a name="e17d03b8-e7fd-4654-bc9c-cb2eb5dda71f"> </a><a name="hce17d03b8-e7fd-4654-bc9c-cb2eb5dda71f"> </a><a name="hce17d03b8-e7fd-4654-bc9c-cb2eb5dda71f-da-DK"> </a><p><b>identifier</b>: <code>https://www.gs1.org/gln</code>/5790000209354, <code>urn:oid:1.2.208.176.1.1</code>/265161000016000</p><p><b>name</b>: Hjerteafdelingen på Herlev og Gentofte hospital</p></div>
        </text>
        <identifier>
          <system value="https://www.gs1.org/gln"/>
          <value value="5790000209354"/>
        </identifier>
        <identifier>
          <system value="urn:oid:1.2.208.176.1.1"/>
          <value value="265161000016000"/>
        </identifier>
        <name value="Hjerteafdelingen på Herlev og Gentofte hospital"/>
      </Organization>
    </resource>
  </entry>
  <entry>
    <fullUrl value="https://medcomfhir.dk/ig/carecommunication/Provenance/6de0806d-7050-4db8-8003-0c72aee52948"/>
    <resource>
      <Provenance>
        <id value="6de0806d-7050-4db8-8003-0c72aee52948"/>
        <meta>
          <profile value="http://medcomfhir.dk/ig/carecommunication/StructureDefinition/medcom-careCommunication-provenance"/>
        </meta>
        <text>
          <status value="generated"/><div xmlns="http://www.w3.org/1999/xhtml"><a name="Provenance_6de0806d-7050-4db8-8003-0c72aee52948"> </a><p class="res-header-id"><b>Generated Narrative: Provenance 6de0806d-7050-4db8-8003-0c72aee52948</b></p><a name="6de0806d-7050-4db8-8003-0c72aee52948"> </a><a name="hc6de0806d-7050-4db8-8003-0c72aee52948"> </a><a name="hc6de0806d-7050-4db8-8003-0c72aee52948-da-DK"> </a><p>Provenance for <a href="MessageHeader-3076d9b0-5521-11ed-bdc3-0242ac120002.html">MessageHeader: event[x] = Care Communication Message (MedComMessagingEventCodes#care-communication-message); definition = http://medcomfhir.dk/ig/carecommunication/medcom-careCommunication-message-definition|4.0.0</a></p><p>Summary</p><table class="grid"><tr><td>Occurrence</td><td>2024-05-07 18:00:00+0200</td></tr><tr><td>Recorded</td><td>2024-05-07 18:00:00+0200</td></tr><tr><td>Activity</td><td><span title="Codes:{http://medcomfhir.dk/ig/terminology/CodeSystem/medcom-messaging-activityCodes reply-message}">A message has been replied to</span></td></tr></table><p><b>Agents</b></p><table class="grid"><tr><td><b>who</b></td></tr><tr><td><a href="Organization-e17d03b8-e7fd-4654-bc9c-cb2eb5dda71f.html">Organization Hjerteafdelingen på Herlev og Gentofte hospital</a></td></tr></table></div>
        </text>
        <target>
          <reference value="MessageHeader/3076d9b0-5521-11ed-bdc3-0242ac120002"/>
        </target>
        <occurredDateTime value="2024-05-07T18:00:00+02:00"/>
        <recorded value="2024-05-07T18:00:00+02:00"/>
        <activity>
          <coding>
            <system value="http://medcomfhir.dk/ig/terminology/CodeSystem/medcom-messaging-activityCodes"/>
            <code value="reply-message"/>
          </coding>
        </activity>
        <agent>
          <who>
            <reference value="Organization/e17d03b8-e7fd-4654-bc9c-cb2eb5dda71f"/>
          </who>
        </agent>
        <entity>
          <role value="source"/>
          <what>
            <identifier>
              <value value="urn:uuid:8521000b-ce04-4c18-b9b1-04dcbdf8e112"/>
            </identifier>
          </what>
        </entity>
        <entity>
          <role value="revision"/>
          <what>
            <identifier>
              <value value="B300720181623#5790000121526"/>
            </identifier>
          </what>
        </entity>
      </Provenance>
    </resource>
  </entry>
</Bundle>