{
  "resourceType" : "Bundle",
  "id" : "720f68cf-21bf-4c40-a90c-a113e00e88a8",
  "meta" : {
    "profile" : ["http://medcomfhir.dk/ig/carecommunication/StructureDefinition/medcom-careCommunication-message"]
  },
  "type" : "message",
  "timestamp" : "2024-09-08T12:00:00+01:00",
  "entry" : [{
    "fullUrl" : "https://medcomfhir.dk/ig/carecommunication/MessageHeader/fdf5a171-5a5b-498f-be75-00d23ffdbd88",
    "resource" : {
      "resourceType" : "MessageHeader",
      "id" : "fdf5a171-5a5b-498f-be75-00d23ffdbd88",
      "meta" : {
        "profile" : ["http://medcomfhir.dk/ig/carecommunication/StructureDefinition/medcom-careCommunication-messageHeader"]
      },
      "text" : {
        "status" : "generated",
        "div" : "<div xmlns=\"http://www.w3.org/1999/xhtml\"><a name=\"MessageHeader_fdf5a171-5a5b-498f-be75-00d23ffdbd88\"> </a><p class=\"res-header-id\"><b>Generated Narrative: MessageHeader fdf5a171-5a5b-498f-be75-00d23ffdbd88</b></p><a name=\"fdf5a171-5a5b-498f-be75-00d23ffdbd88\"> </a><a name=\"hcfdf5a171-5a5b-498f-be75-00d23ffdbd88\"> </a><a name=\"fdf5a171-5a5b-498f-be75-00d23ffdbd88-da-DK\"> </a><p><b>event</b>: <a href=\"http://medcomfhir.dk/ig/terminology/1.7.0/CodeSystem-medcom-messaging-eventCodes.html#medcom-messaging-eventCodes-care-communication-message\">MedComMessagingEventCodes</a> care-communication-message: Care Communication Message</p><h3>Destinations</h3><table class=\"grid\"><tr><td style=\"display: none\">-</td><td><b>Extension</b></td><td><b>Endpoint</b></td><td><b>Receiver</b></td></tr><tr><td style=\"display: none\">*</td><td/><td><a href=\"https://sor2.sum.dsdn.dk/#id=441211000016000\">https://sor2.sum.dsdn.dk/#id=441211000016000</a></td><td><a href=\"Organization-23e981cb-c908-4654-ab56-7f23b5126afd.html\">Organization: identifier = https://www.gs1.org/gln#5790001987244,urn:oid:1.2.208.176.1.1#441211000016000</a></td></tr></table><p><b>sender</b>: <a href=\"Organization-5b68d9ca-2782-47bf-b095-04573db9363b.html\">Organization: identifier = https://www.gs1.org/gln#5790002626814,urn:oid:1.2.208.176.1.1#1339531000016004</a></p><h3>Sources</h3><table class=\"grid\"><tr><td style=\"display: none\">-</td><td><b>Endpoint</b></td></tr><tr><td style=\"display: none\">*</td><td><a href=\"https://sor2.sum.dsdn.dk/#id=1339531000016004\">https://sor2.sum.dsdn.dk/#id=1339531000016004</a></td></tr></table><p><b>focus</b>: <a href=\"Communication-94e90632-7081-4a72-82ed-a23778706b09.html\">Communication: identifier = urn:uuid:f9e8167e-39fb-4d94-a32b-43655ade1082; status = unknown; category = Medicine</a></p><p><b>definition</b>: <code>http://medcomfhir.dk/ig/carecommunication/medcom-careCommunication-message-definition|4.0.0</code></p></div>"
      },
      "eventCoding" : {
        "system" : "http://medcomfhir.dk/ig/terminology/CodeSystem/medcom-messaging-eventCodes",
        "code" : "care-communication-message"
      },
      "destination" : [{
        "extension" : [{
          "url" : "http://medcomfhir.dk/ig/messaging/StructureDefinition/medcom-messaging-destinationUseExtension",
          "valueCoding" : {
            "system" : "http://medcomfhir.dk/ig/terminology/CodeSystem/medcom-messaging-destinationUse",
            "code" : "primary"
          }
        }],
        "endpoint" : "https://sor2.sum.dsdn.dk/#id=441211000016000",
        "receiver" : {
          "reference" : "Organization/23e981cb-c908-4654-ab56-7f23b5126afd"
        }
      }],
      "sender" : {
        "reference" : "Organization/5b68d9ca-2782-47bf-b095-04573db9363b"
      },
      "source" : {
        "endpoint" : "https://sor2.sum.dsdn.dk/#id=1339531000016004"
      },
      "focus" : [{
        "reference" : "Communication/94e90632-7081-4a72-82ed-a23778706b09"
      }],
      "definition" : "http://medcomfhir.dk/ig/carecommunication/medcom-careCommunication-message-definition|4.0.0"
    }
  },
  {
    "fullUrl" : "https://medcomfhir.dk/ig/carecommunication/Patient/b6a2e10b-f6da-49de-86b3-980755fc07d5",
    "resource" : {
      "resourceType" : "Patient",
      "id" : "b6a2e10b-f6da-49de-86b3-980755fc07d5",
      "meta" : {
        "profile" : ["http://medcomfhir.dk/ig/core/StructureDefinition/medcom-core-patient"]
      },
      "text" : {
        "status" : "generated",
        "div" : "<div xmlns=\"http://www.w3.org/1999/xhtml\"><a name=\"Patient_b6a2e10b-f6da-49de-86b3-980755fc07d5\"> </a><p class=\"res-header-id\"><b>Generated Narrative: Patient b6a2e10b-f6da-49de-86b3-980755fc07d5</b></p><a name=\"b6a2e10b-f6da-49de-86b3-980755fc07d5\"> </a><a name=\"hcb6a2e10b-f6da-49de-86b3-980755fc07d5\"> </a><a name=\"b6a2e10b-f6da-49de-86b3-980755fc07d5-da-DK\"> </a><p style=\"border: 1px #661aff solid; background-color: #e6e6ff; padding: 10px;\">Elmer (official) (no stated gender), DoB Unknown ( urn:oid:1.2.208.176.1.2#2509479989)</p><hr/></div>"
      },
      "identifier" : [{
        "system" : "urn:oid:1.2.208.176.1.2",
        "value" : "2509479989"
      }],
      "name" : [{
        "use" : "official",
        "family" : "Elmer"
      }]
    }
  },
  {
    "fullUrl" : "https://medcomfhir.dk/ig/carecommunication/Communication/94e90632-7081-4a72-82ed-a23778706b09",
    "resource" : {
      "resourceType" : "Communication",
      "id" : "94e90632-7081-4a72-82ed-a23778706b09",
      "meta" : {
        "profile" : ["http://medcomfhir.dk/ig/carecommunication/StructureDefinition/medcom-careCommunication-communication"]
      },
      "text" : {
        "status" : "generated",
        "div" : "<div xmlns=\"http://www.w3.org/1999/xhtml\"><a name=\"Communication_94e90632-7081-4a72-82ed-a23778706b09\"> </a><p class=\"res-header-id\"><b>Generated Narrative: Communication 94e90632-7081-4a72-82ed-a23778706b09</b></p><a name=\"94e90632-7081-4a72-82ed-a23778706b09\"> </a><a name=\"hc94e90632-7081-4a72-82ed-a23778706b09\"> </a><a name=\"94e90632-7081-4a72-82ed-a23778706b09-da-DK\"> </a><p><b>identifier</b>: urn:uuid:f9e8167e-39fb-4d94-a32b-43655ade1082</p><p><b>status</b>: Unknown</p><p><b>category</b>: <span title=\"Codes:{http://medcomfhir.dk/ig/terminology/CodeSystem/medcom-careCommunication-categoryCodes medicine}\">Medicine</span></p><p><b>subject</b>: <a href=\"Patient-b6a2e10b-f6da-49de-86b3-980755fc07d5.html\">Elmer (official) (no stated gender), DoB Unknown ( urn:oid:1.2.208.176.1.2#2509479989)</a></p><blockquote><p><b>payload</b></p><p><b>content</b>: Til rette vedkommende. Vi vil med denne korrespondance gerne &amp;quot;prøve&amp;quot; på &amp;apos; nogle &amp;apos; særlige &amp;lt;tegn&amp;gt; ; til test &amp;amp; certificering @ ^ * /Hilsen Michael, sygeplejerske.</p></blockquote></div>"
      },
      "identifier" : [{
        "value" : "urn:uuid:f9e8167e-39fb-4d94-a32b-43655ade1082"
      }],
      "status" : "unknown",
      "category" : [{
        "coding" : [{
          "system" : "http://medcomfhir.dk/ig/terminology/CodeSystem/medcom-careCommunication-categoryCodes",
          "code" : "medicine"
        }]
      }],
      "subject" : {
        "reference" : "Patient/b6a2e10b-f6da-49de-86b3-980755fc07d5"
      },
      "payload" : [{
        "extension" : [{
          "url" : "http://medcomfhir.dk/ig/core/StructureDefinition/medcom-core-datetime-extension",
          "valueDateTime" : "2024-09-08T12:00:00+01:00"
        },
        {
          "url" : "http://medcomfhir.dk/ig/core/StructureDefinition/medcom-core-identifier-extension",
          "valueIdentifier" : {
            "value" : "urn:uuid:8521000b-ce04-4c18-b9b1-04dcbdf8e112",
            "assigner" : {
              "reference" : "Organization/23e981cb-c908-4654-ab56-7f23b5126afd"
            }
          }
        },
        {
          "url" : "http://medcomfhir.dk/ig/core/StructureDefinition/medcom-core-practitioner-extension",
          "valueReference" : {
            "reference" : "PractitionerRole/66e95c8f-4297-435d-a4a9-eed130083cae"
          }
        },
        {
          "url" : "http://medcomfhir.dk/ig/core/StructureDefinition/medcom-core-contact-extension",
          "valueContactPoint" : {
            "system" : "phone",
            "value" : "38683868"
          }
        }],
        "contentString" : "Til rette vedkommende. Vi vil med denne korrespondance gerne &quot;prøve&quot; på &apos; nogle &apos; særlige &lt;tegn&gt; ; til test &amp; certificering @ ^ * /Hilsen Michael, sygeplejerske."
      }]
    }
  },
  {
    "fullUrl" : "https://medcomfhir.dk/ig/carecommunication/PractitionerRole/66e95c8f-4297-435d-a4a9-eed130083cae",
    "resource" : {
      "resourceType" : "PractitionerRole",
      "id" : "66e95c8f-4297-435d-a4a9-eed130083cae",
      "meta" : {
        "profile" : ["http://medcomfhir.dk/ig/core/StructureDefinition/medcom-core-practitionerrole"]
      },
      "text" : {
        "status" : "generated",
        "div" : "<div xmlns=\"http://www.w3.org/1999/xhtml\"><a name=\"PractitionerRole_66e95c8f-4297-435d-a4a9-eed130083cae\"> </a><p class=\"res-header-id\"><b>Generated Narrative: PractitionerRole 66e95c8f-4297-435d-a4a9-eed130083cae</b></p><a name=\"66e95c8f-4297-435d-a4a9-eed130083cae\"> </a><a name=\"hc66e95c8f-4297-435d-a4a9-eed130083cae\"> </a><a name=\"66e95c8f-4297-435d-a4a9-eed130083cae-da-DK\"> </a><p><b>practitioner</b>: <a href=\"Practitioner-652d44ea-d5ad-4745-bf09-88789a258117.html\">Practitioner Michael Burns </a></p><p><b>code</b>: <span title=\"Codes:{http://medcomfhir.dk/ig/terminology/CodeSystem/medcom-core-PractitionerRolesSKSadministrativ sygeplejerske}\">Sygeplejerske</span></p></div>"
      },
      "practitioner" : {
        "reference" : "Practitioner/652d44ea-d5ad-4745-bf09-88789a258117"
      },
      "code" : [{
        "coding" : [{
          "system" : "http://medcomfhir.dk/ig/terminology/CodeSystem/medcom-core-PractitionerRolesSKSadministrativ",
          "code" : "sygeplejerske"
        }]
      }]
    }
  },
  {
    "fullUrl" : "https://medcomfhir.dk/ig/carecommunication/Practitioner/652d44ea-d5ad-4745-bf09-88789a258117",
    "resource" : {
      "resourceType" : "Practitioner",
      "id" : "652d44ea-d5ad-4745-bf09-88789a258117",
      "meta" : {
        "profile" : ["http://medcomfhir.dk/ig/core/StructureDefinition/medcom-core-practitioner"]
      },
      "text" : {
        "status" : "generated",
        "div" : "<div xmlns=\"http://www.w3.org/1999/xhtml\"><a name=\"Practitioner_652d44ea-d5ad-4745-bf09-88789a258117\"> </a><p class=\"res-header-id\"><b>Generated Narrative: Practitioner 652d44ea-d5ad-4745-bf09-88789a258117</b></p><a name=\"652d44ea-d5ad-4745-bf09-88789a258117\"> </a><a name=\"hc652d44ea-d5ad-4745-bf09-88789a258117\"> </a><a name=\"652d44ea-d5ad-4745-bf09-88789a258117-da-DK\"> </a><p><b>name</b>: Michael Burns </p></div>"
      },
      "name" : [{
        "family" : "Burns",
        "given" : ["Michael"]
      }]
    }
  },
  {
    "fullUrl" : "https://medcomfhir.dk/ig/carecommunication/Organization/23e981cb-c908-4654-ab56-7f23b5126afd",
    "resource" : {
      "resourceType" : "Organization",
      "id" : "23e981cb-c908-4654-ab56-7f23b5126afd",
      "meta" : {
        "profile" : ["http://medcomfhir.dk/ig/messaging/StructureDefinition/medcom-messaging-organization"]
      },
      "text" : {
        "status" : "generated",
        "div" : "<div xmlns=\"http://www.w3.org/1999/xhtml\"><a name=\"Organization_23e981cb-c908-4654-ab56-7f23b5126afd\"> </a><p class=\"res-header-id\"><b>Generated Narrative: Organization 23e981cb-c908-4654-ab56-7f23b5126afd</b></p><a name=\"23e981cb-c908-4654-ab56-7f23b5126afd\"> </a><a name=\"hc23e981cb-c908-4654-ab56-7f23b5126afd\"> </a><a name=\"23e981cb-c908-4654-ab56-7f23b5126afd-da-DK\"> </a><p><b>identifier</b>: <code>https://www.gs1.org/gln</code>/5790001987244, <code>urn:oid:1.2.208.176.1.1</code>/441211000016000</p></div>"
      },
      "identifier" : [{
        "system" : "https://www.gs1.org/gln",
        "value" : "5790001987244"
      },
      {
        "system" : "urn:oid:1.2.208.176.1.1",
        "value" : "441211000016000"
      }]
    }
  },
  {
    "fullUrl" : "https://medcomfhir.dk/ig/carecommunication/Organization/5b68d9ca-2782-47bf-b095-04573db9363b",
    "resource" : {
      "resourceType" : "Organization",
      "id" : "5b68d9ca-2782-47bf-b095-04573db9363b",
      "meta" : {
        "profile" : ["http://medcomfhir.dk/ig/messaging/StructureDefinition/medcom-messaging-organization"]
      },
      "text" : {
        "status" : "generated",
        "div" : "<div xmlns=\"http://www.w3.org/1999/xhtml\"><a name=\"Organization_5b68d9ca-2782-47bf-b095-04573db9363b\"> </a><p class=\"res-header-id\"><b>Generated Narrative: Organization 5b68d9ca-2782-47bf-b095-04573db9363b</b></p><a name=\"5b68d9ca-2782-47bf-b095-04573db9363b\"> </a><a name=\"hc5b68d9ca-2782-47bf-b095-04573db9363b\"> </a><a name=\"5b68d9ca-2782-47bf-b095-04573db9363b-da-DK\"> </a><p><b>identifier</b>: <code>https://www.gs1.org/gln</code>/5790002626814, <code>urn:oid:1.2.208.176.1.1</code>/1339531000016004</p></div>"
      },
      "identifier" : [{
        "system" : "https://www.gs1.org/gln",
        "value" : "5790002626814"
      },
      {
        "system" : "urn:oid:1.2.208.176.1.1",
        "value" : "1339531000016004"
      }]
    }
  },
  {
    "fullUrl" : "https://medcomfhir.dk/ig/carecommunication/Provenance/47368ed8-62bf-462e-a345-7671bb85c926",
    "resource" : {
      "resourceType" : "Provenance",
      "id" : "47368ed8-62bf-462e-a345-7671bb85c926",
      "meta" : {
        "profile" : ["http://medcomfhir.dk/ig/carecommunication/StructureDefinition/medcom-careCommunication-provenance"]
      },
      "text" : {
        "status" : "generated",
        "div" : "<div xmlns=\"http://www.w3.org/1999/xhtml\"><a name=\"Provenance_47368ed8-62bf-462e-a345-7671bb85c926\"> </a><p class=\"res-header-id\"><b>Generated Narrative: Provenance 47368ed8-62bf-462e-a345-7671bb85c926</b></p><a name=\"47368ed8-62bf-462e-a345-7671bb85c926\"> </a><a name=\"hc47368ed8-62bf-462e-a345-7671bb85c926\"> </a><a name=\"47368ed8-62bf-462e-a345-7671bb85c926-da-DK\"> </a><p>Provenance for <a href=\"MessageHeader-fdf5a171-5a5b-498f-be75-00d23ffdbd88.html\">MessageHeader: event[x] = Care Communication Message (MedComMessagingEventCodes#care-communication-message); definition = http://medcomfhir.dk/ig/carecommunication/medcom-careCommunication-message-definition|4.0.0</a></p><p>Summary</p><table class=\"grid\"><tr><td>Occurrence</td><td>2024-09-08 12:00:00+0100</td></tr><tr><td>Recorded</td><td>2024-09-08 12:00:00+0100</td></tr><tr><td>Activity</td><td><span title=\"Codes:{http://medcomfhir.dk/ig/terminology/CodeSystem/medcom-messaging-activityCodes new-message}\">A new message has been sent</span></td></tr></table><p><b>Agents</b></p><table class=\"grid\"><tr><td><b>who</b></td></tr><tr><td><a href=\"Organization-23e981cb-c908-4654-ab56-7f23b5126afd.html\">Organization: identifier = https://www.gs1.org/gln#5790001987244,urn:oid:1.2.208.176.1.1#441211000016000</a></td></tr></table></div>"
      },
      "target" : [{
        "reference" : "MessageHeader/fdf5a171-5a5b-498f-be75-00d23ffdbd88"
      }],
      "occurredDateTime" : "2024-09-08T12:00:00+01:00",
      "recorded" : "2024-09-08T12:00:00+01:00",
      "activity" : {
        "coding" : [{
          "system" : "http://medcomfhir.dk/ig/terminology/CodeSystem/medcom-messaging-activityCodes",
          "code" : "new-message"
        }]
      },
      "agent" : [{
        "who" : {
          "reference" : "Organization/23e981cb-c908-4654-ab56-7f23b5126afd"
        }
      }],
      "entity" : [{
        "role" : "source",
        "what" : {
          "identifier" : {
            "value" : "urn:uuid:8521000b-ce04-4c18-b9b1-04dcbdf8e112"
          }
        }
      }]
    }
  }]
}