{
  "resourceType" : "Bundle",
  "id" : "98eb081e-a66f-41a2-b2f7-c455782563b0",
  "meta" : {
    "profile" : ["http://medcomfhir.dk/ig/carecommunication/StructureDefinition/medcom-careCommunication-message"]
  },
  "type" : "message",
  "timestamp" : "2024-09-16T08:30:00+01:00",
  "entry" : [{
    "fullUrl" : "https://medcomfhir.dk/ig/carecommunication/MessageHeader/7969a2b7-3ff4-4802-9246-8ed74102ed73",
    "resource" : {
      "resourceType" : "MessageHeader",
      "id" : "7969a2b7-3ff4-4802-9246-8ed74102ed73",
      "meta" : {
        "profile" : ["http://medcomfhir.dk/ig/carecommunication/StructureDefinition/medcom-careCommunication-messageHeader"]
      },
      "text" : {
        "status" : "generated",
        "div" : "<div xmlns=\"http://www.w3.org/1999/xhtml\"><a name=\"MessageHeader_7969a2b7-3ff4-4802-9246-8ed74102ed73\"> </a><p class=\"res-header-id\"><b>Generated Narrative: MessageHeader 7969a2b7-3ff4-4802-9246-8ed74102ed73</b></p><a name=\"7969a2b7-3ff4-4802-9246-8ed74102ed73\"> </a><a name=\"hc7969a2b7-3ff4-4802-9246-8ed74102ed73\"> </a><a name=\"7969a2b7-3ff4-4802-9246-8ed74102ed73-da-DK\"> </a><p><b>event</b>: <a href=\"http://medcomfhir.dk/ig/terminology/1.7.0/CodeSystem-medcom-messaging-eventCodes.html#medcom-messaging-eventCodes-care-communication-message\">MedComMessagingEventCodes</a> care-communication-message: Care Communication Message</p><h3>Destinations</h3><table class=\"grid\"><tr><td style=\"display: none\">-</td><td><b>Extension</b></td><td><b>Endpoint</b></td><td><b>Receiver</b></td></tr><tr><td style=\"display: none\">*</td><td/><td><a href=\"https://sor2.sum.dsdn.dk/#id=328081000016004\">https://sor2.sum.dsdn.dk/#id=328081000016004</a></td><td><a href=\"Organization-454aafa3-8ecb-4c0b-9696-eee6cce6c498.html\">Organization Hjemmesygeplejen, Aalborg kommune</a></td></tr></table><p><b>sender</b>: <a href=\"Organization-0e804dff-95f7-40fe-bb96-561363715869.html\">Organization Lægeklinik Ølgod</a></p><h3>Sources</h3><table class=\"grid\"><tr><td style=\"display: none\">-</td><td><b>Endpoint</b></td></tr><tr><td style=\"display: none\">*</td><td><a href=\"https://sor2.sum.dsdn.dk/#id=1339531000016004\">https://sor2.sum.dsdn.dk/#id=1339531000016004</a></td></tr></table><p><b>focus</b>: <a href=\"Communication-e6907e11-f007-4e2c-a98d-a543229a10c2.html\">Communication: identifier = urn:uuid:a6be8e47-43a0-4a34-8041-083d41eba038; status = unknown; category = Examination Results; topic = </a></p><p><b>definition</b>: <code>http://medcomfhir.dk/ig/carecommunication/medcom-careCommunication-message-definition|4.0.0</code></p></div>"
      },
      "eventCoding" : {
        "system" : "http://medcomfhir.dk/ig/terminology/CodeSystem/medcom-messaging-eventCodes",
        "code" : "care-communication-message"
      },
      "destination" : [{
        "extension" : [{
          "url" : "http://medcomfhir.dk/ig/messaging/StructureDefinition/medcom-messaging-destinationUseExtension",
          "valueCoding" : {
            "system" : "http://medcomfhir.dk/ig/terminology/CodeSystem/medcom-messaging-destinationUse",
            "code" : "primary"
          }
        }],
        "endpoint" : "https://sor2.sum.dsdn.dk/#id=328081000016004",
        "receiver" : {
          "reference" : "Organization/454aafa3-8ecb-4c0b-9696-eee6cce6c498"
        }
      }],
      "sender" : {
        "reference" : "Organization/0e804dff-95f7-40fe-bb96-561363715869"
      },
      "source" : {
        "endpoint" : "https://sor2.sum.dsdn.dk/#id=1339531000016004"
      },
      "focus" : [{
        "reference" : "Communication/e6907e11-f007-4e2c-a98d-a543229a10c2"
      }],
      "definition" : "http://medcomfhir.dk/ig/carecommunication/medcom-careCommunication-message-definition|4.0.0"
    }
  },
  {
    "fullUrl" : "https://medcomfhir.dk/ig/carecommunication/Patient/b670ed56-9a4f-4903-ad51-65773a327d93",
    "resource" : {
      "resourceType" : "Patient",
      "id" : "b670ed56-9a4f-4903-ad51-65773a327d93",
      "meta" : {
        "profile" : ["http://medcomfhir.dk/ig/core/StructureDefinition/medcom-core-patient"]
      },
      "text" : {
        "status" : "generated",
        "div" : "<div xmlns=\"http://www.w3.org/1999/xhtml\"><a name=\"Patient_b670ed56-9a4f-4903-ad51-65773a327d93\"> </a><p class=\"res-header-id\"><b>Generated Narrative: Patient b670ed56-9a4f-4903-ad51-65773a327d93</b></p><a name=\"b670ed56-9a4f-4903-ad51-65773a327d93\"> </a><a name=\"hcb670ed56-9a4f-4903-ad51-65773a327d93\"> </a><a name=\"b670ed56-9a4f-4903-ad51-65773a327d93-da-DK\"> </a><p style=\"border: 1px #661aff solid; background-color: #e6e6ff; padding: 10px;\">Bruno Test Elmer (official) (no stated gender), DoB Unknown ( urn:oid:1.2.208.176.1.2#2509479989)</p><hr/></div>"
      },
      "identifier" : [{
        "system" : "urn:oid:1.2.208.176.1.2",
        "value" : "2509479989"
      }],
      "name" : [{
        "use" : "official",
        "family" : "Elmer",
        "given" : ["Bruno",
        "Test"]
      }]
    }
  },
  {
    "fullUrl" : "https://medcomfhir.dk/ig/carecommunication/Communication/e6907e11-f007-4e2c-a98d-a543229a10c2",
    "resource" : {
      "resourceType" : "Communication",
      "id" : "e6907e11-f007-4e2c-a98d-a543229a10c2",
      "meta" : {
        "profile" : ["http://medcomfhir.dk/ig/carecommunication/StructureDefinition/medcom-careCommunication-communication"]
      },
      "text" : {
        "status" : "generated",
        "div" : "<div xmlns=\"http://www.w3.org/1999/xhtml\"><a name=\"Communication_e6907e11-f007-4e2c-a98d-a543229a10c2\"> </a><p class=\"res-header-id\"><b>Generated Narrative: Communication e6907e11-f007-4e2c-a98d-a543229a10c2</b></p><a name=\"e6907e11-f007-4e2c-a98d-a543229a10c2\"> </a><a name=\"hce6907e11-f007-4e2c-a98d-a543229a10c2\"> </a><a name=\"e6907e11-f007-4e2c-a98d-a543229a10c2-da-DK\"> </a><p><b>identifier</b>: urn:uuid:a6be8e47-43a0-4a34-8041-083d41eba038</p><p><b>status</b>: Unknown</p><p><b>category</b>: <span title=\"Codes:{http://medcomfhir.dk/ig/terminology/CodeSystem/medcom-careCommunication-categoryCodes examination-results}\">Examination Results</span></p><p><b>subject</b>: <a href=\"Patient-b670ed56-9a4f-4903-ad51-65773a327d93.html\">Bruno Test Elmer (official) (no stated gender), DoB Unknown ( urn:oid:1.2.208.176.1.2#2509479989)</a></p><p><b>topic</b>: <span title=\"Codes:\">Resultater fra hjemmesygeplejen</span></p><blockquote><p><b>payload</b></p><p><b>content</b>: Til rette vedkommende. Hermed fremsendes undersøgelsesresultater fra seneste besøg af hjemmesygeplejen. Denne meddelelse ligner til Tek-B-new, men er det ikke. Hilsen Michael, sygeplejerske.</p></blockquote></div>"
      },
      "identifier" : [{
        "value" : "urn:uuid:a6be8e47-43a0-4a34-8041-083d41eba038"
      }],
      "status" : "unknown",
      "category" : [{
        "coding" : [{
          "system" : "http://medcomfhir.dk/ig/terminology/CodeSystem/medcom-careCommunication-categoryCodes",
          "code" : "examination-results"
        }]
      }],
      "subject" : {
        "reference" : "Patient/b670ed56-9a4f-4903-ad51-65773a327d93"
      },
      "topic" : {
        "text" : "Resultater fra hjemmesygeplejen"
      },
      "payload" : [{
        "extension" : [{
          "url" : "http://medcomfhir.dk/ig/core/StructureDefinition/medcom-core-datetime-extension",
          "valueDateTime" : "2024-09-16T08:30:00+01:00"
        },
        {
          "url" : "http://medcomfhir.dk/ig/core/StructureDefinition/medcom-core-identifier-extension",
          "valueIdentifier" : {
            "value" : "urn:uuid:dc9665dd-b9c3-4349-af08-e9dd61d0e211",
            "assigner" : {
              "reference" : "Organization/454aafa3-8ecb-4c0b-9696-eee6cce6c498"
            }
          }
        },
        {
          "url" : "http://medcomfhir.dk/ig/core/StructureDefinition/medcom-core-practitioner-extension",
          "valueReference" : {
            "reference" : "PractitionerRole/edccec4f-0d3e-46be-9f66-97f459f6bafe"
          }
        },
        {
          "url" : "http://medcomfhir.dk/ig/core/StructureDefinition/medcom-core-contact-extension",
          "valueContactPoint" : {
            "system" : "phone",
            "value" : "004523232323"
          }
        }],
        "contentString" : "Til rette vedkommende. Hermed fremsendes undersøgelsesresultater fra seneste besøg af hjemmesygeplejen. Denne meddelelse ligner til Tek-B-new, men er det ikke. Hilsen Michael, sygeplejerske."
      }]
    }
  },
  {
    "fullUrl" : "https://medcomfhir.dk/ig/carecommunication/PractitionerRole/edccec4f-0d3e-46be-9f66-97f459f6bafe",
    "resource" : {
      "resourceType" : "PractitionerRole",
      "id" : "edccec4f-0d3e-46be-9f66-97f459f6bafe",
      "meta" : {
        "profile" : ["http://medcomfhir.dk/ig/core/StructureDefinition/medcom-core-practitionerrole"]
      },
      "text" : {
        "status" : "generated",
        "div" : "<div xmlns=\"http://www.w3.org/1999/xhtml\"><a name=\"PractitionerRole_edccec4f-0d3e-46be-9f66-97f459f6bafe\"> </a><p class=\"res-header-id\"><b>Generated Narrative: PractitionerRole edccec4f-0d3e-46be-9f66-97f459f6bafe</b></p><a name=\"edccec4f-0d3e-46be-9f66-97f459f6bafe\"> </a><a name=\"hcedccec4f-0d3e-46be-9f66-97f459f6bafe\"> </a><a name=\"edccec4f-0d3e-46be-9f66-97f459f6bafe-da-DK\"> </a><p><b>practitioner</b>: <a href=\"Practitioner-1236e5b1-40cf-4d40-b44a-0ae8e8931121.html\">Practitioner Michael Magnus Burns </a></p><p><b>code</b>: <span title=\"Codes:{http://medcomfhir.dk/ig/terminology/CodeSystem/medcom-core-PractitionerRolesSKSadministrativ sygeplejerske}\">Sygeplejerske</span></p></div>"
      },
      "practitioner" : {
        "reference" : "Practitioner/1236e5b1-40cf-4d40-b44a-0ae8e8931121"
      },
      "code" : [{
        "coding" : [{
          "system" : "http://medcomfhir.dk/ig/terminology/CodeSystem/medcom-core-PractitionerRolesSKSadministrativ",
          "code" : "sygeplejerske"
        }]
      }]
    }
  },
  {
    "fullUrl" : "https://medcomfhir.dk/ig/carecommunication/Practitioner/1236e5b1-40cf-4d40-b44a-0ae8e8931121",
    "resource" : {
      "resourceType" : "Practitioner",
      "id" : "1236e5b1-40cf-4d40-b44a-0ae8e8931121",
      "meta" : {
        "profile" : ["http://medcomfhir.dk/ig/core/StructureDefinition/medcom-core-practitioner"]
      },
      "text" : {
        "status" : "generated",
        "div" : "<div xmlns=\"http://www.w3.org/1999/xhtml\"><a name=\"Practitioner_1236e5b1-40cf-4d40-b44a-0ae8e8931121\"> </a><p class=\"res-header-id\"><b>Generated Narrative: Practitioner 1236e5b1-40cf-4d40-b44a-0ae8e8931121</b></p><a name=\"1236e5b1-40cf-4d40-b44a-0ae8e8931121\"> </a><a name=\"hc1236e5b1-40cf-4d40-b44a-0ae8e8931121\"> </a><a name=\"1236e5b1-40cf-4d40-b44a-0ae8e8931121-da-DK\"> </a><p><b>name</b>: Michael Magnus Burns </p></div>"
      },
      "name" : [{
        "family" : "Burns",
        "given" : ["Michael",
        "Magnus"]
      }]
    }
  },
  {
    "fullUrl" : "https://medcomfhir.dk/ig/carecommunication/Encounter/ede7ee60-4541-438c-922d-1898a14fa3b1",
    "resource" : {
      "resourceType" : "Encounter",
      "id" : "ede7ee60-4541-438c-922d-1898a14fa3b1",
      "meta" : {
        "profile" : ["http://medcomfhir.dk/ig/core/StructureDefinition/medcom-core-encounter"]
      },
      "text" : {
        "status" : "generated",
        "div" : "<div xmlns=\"http://www.w3.org/1999/xhtml\"><a name=\"Encounter_ede7ee60-4541-438c-922d-1898a14fa3b1\"> </a><p class=\"res-header-id\"><b>Generated Narrative: Encounter ede7ee60-4541-438c-922d-1898a14fa3b1</b></p><a name=\"ede7ee60-4541-438c-922d-1898a14fa3b1\"> </a><a name=\"hcede7ee60-4541-438c-922d-1898a14fa3b1\"> </a><a name=\"ede7ee60-4541-438c-922d-1898a14fa3b1-da-DK\"> </a><p><b>status</b>: Finished</p><p><b>class</b>: <a href=\"http://terminology.hl7.org/5.5.0/CodeSystem-v3-ActCode.html#v3-ActCode-IMP\">ActCode</a> IMP: inpatient encounter</p><p><b>subject</b>: <a href=\"Patient-b670ed56-9a4f-4903-ad51-65773a327d93.html\">Bruno Test Elmer (official) (no stated gender), DoB Unknown ( urn:oid:1.2.208.176.1.2#2509479989)</a></p><p><b>episodeOfCare</b>: Identifier: <code>https://sor2.sum.dsdn.dk/#id=328081000016004</code>/39e3e169-9ece-4ba4-bd24-2e0fbeebc333</p></div>"
      },
      "status" : "finished",
      "class" : {
        "system" : "http://terminology.hl7.org/CodeSystem/v3-ActCode",
        "code" : "IMP"
      },
      "subject" : {
        "reference" : "Patient/b670ed56-9a4f-4903-ad51-65773a327d93"
      },
      "episodeOfCare" : [{
        "identifier" : {
          "system" : "https://sor2.sum.dsdn.dk/#id=328081000016004",
          "value" : "39e3e169-9ece-4ba4-bd24-2e0fbeebc333"
        }
      }]
    }
  },
  {
    "fullUrl" : "https://medcomfhir.dk/ig/carecommunication/Organization/454aafa3-8ecb-4c0b-9696-eee6cce6c498",
    "resource" : {
      "resourceType" : "Organization",
      "id" : "454aafa3-8ecb-4c0b-9696-eee6cce6c498",
      "meta" : {
        "profile" : ["http://medcomfhir.dk/ig/messaging/StructureDefinition/medcom-messaging-organization"]
      },
      "text" : {
        "status" : "generated",
        "div" : "<div xmlns=\"http://www.w3.org/1999/xhtml\"><a name=\"Organization_454aafa3-8ecb-4c0b-9696-eee6cce6c498\"> </a><p class=\"res-header-id\"><b>Generated Narrative: Organization 454aafa3-8ecb-4c0b-9696-eee6cce6c498</b></p><a name=\"454aafa3-8ecb-4c0b-9696-eee6cce6c498\"> </a><a name=\"hc454aafa3-8ecb-4c0b-9696-eee6cce6c498\"> </a><a name=\"454aafa3-8ecb-4c0b-9696-eee6cce6c498-da-DK\"> </a><p><b>identifier</b>: <code>https://www.gs1.org/gln</code>/5790000121786, <code>urn:oid:1.2.208.176.1.1</code>/328081000016004</p><p><b>name</b>: Hjemmesygeplejen, Aalborg kommune</p></div>"
      },
      "identifier" : [{
        "system" : "https://www.gs1.org/gln",
        "value" : "5790000121786"
      },
      {
        "system" : "urn:oid:1.2.208.176.1.1",
        "value" : "328081000016004"
      }],
      "name" : "Hjemmesygeplejen, Aalborg kommune"
    }
  },
  {
    "fullUrl" : "https://medcomfhir.dk/ig/carecommunication/Organization/0e804dff-95f7-40fe-bb96-561363715869",
    "resource" : {
      "resourceType" : "Organization",
      "id" : "0e804dff-95f7-40fe-bb96-561363715869",
      "meta" : {
        "profile" : ["http://medcomfhir.dk/ig/messaging/StructureDefinition/medcom-messaging-organization"]
      },
      "text" : {
        "status" : "generated",
        "div" : "<div xmlns=\"http://www.w3.org/1999/xhtml\"><a name=\"Organization_0e804dff-95f7-40fe-bb96-561363715869\"> </a><p class=\"res-header-id\"><b>Generated Narrative: Organization 0e804dff-95f7-40fe-bb96-561363715869</b></p><a name=\"0e804dff-95f7-40fe-bb96-561363715869\"> </a><a name=\"hc0e804dff-95f7-40fe-bb96-561363715869\"> </a><a name=\"0e804dff-95f7-40fe-bb96-561363715869-da-DK\"> </a><p><b>identifier</b>: <code>https://www.gs1.org/gln</code>/5790002626814, <code>urn:oid:1.2.208.176.1.1</code>/1339531000016004</p><p><b>name</b>: Lægeklinik Ølgod</p></div>"
      },
      "identifier" : [{
        "system" : "https://www.gs1.org/gln",
        "value" : "5790002626814"
      },
      {
        "system" : "urn:oid:1.2.208.176.1.1",
        "value" : "1339531000016004"
      }],
      "name" : "Lægeklinik Ølgod"
    }
  },
  {
    "fullUrl" : "https://medcomfhir.dk/ig/carecommunication/Provenance/d53ad029-99e5-44d5-b240-2ea01930701a",
    "resource" : {
      "resourceType" : "Provenance",
      "id" : "d53ad029-99e5-44d5-b240-2ea01930701a",
      "meta" : {
        "profile" : ["http://medcomfhir.dk/ig/carecommunication/StructureDefinition/medcom-careCommunication-provenance"]
      },
      "text" : {
        "status" : "generated",
        "div" : "<div xmlns=\"http://www.w3.org/1999/xhtml\"><a name=\"Provenance_d53ad029-99e5-44d5-b240-2ea01930701a\"> </a><p class=\"res-header-id\"><b>Generated Narrative: Provenance d53ad029-99e5-44d5-b240-2ea01930701a</b></p><a name=\"d53ad029-99e5-44d5-b240-2ea01930701a\"> </a><a name=\"hcd53ad029-99e5-44d5-b240-2ea01930701a\"> </a><a name=\"d53ad029-99e5-44d5-b240-2ea01930701a-da-DK\"> </a><p>Provenance for <a href=\"MessageHeader-7969a2b7-3ff4-4802-9246-8ed74102ed73.html\">MessageHeader: event[x] = Care Communication Message (MedComMessagingEventCodes#care-communication-message); definition = http://medcomfhir.dk/ig/carecommunication/medcom-careCommunication-message-definition|4.0.0</a></p><p>Summary</p><table class=\"grid\"><tr><td>Occurrence</td><td>2024-09-16 08:30:00+0100</td></tr><tr><td>Recorded</td><td>2024-09-16 08:30:00+0100</td></tr><tr><td>Activity</td><td><span title=\"Codes:{http://medcomfhir.dk/ig/terminology/CodeSystem/medcom-messaging-activityCodes new-message}\">A new message has been sent</span></td></tr></table><p><b>Agents</b></p><table class=\"grid\"><tr><td><b>who</b></td></tr><tr><td><a href=\"Organization-454aafa3-8ecb-4c0b-9696-eee6cce6c498.html\">Organization Hjemmesygeplejen, Aalborg kommune</a></td></tr></table></div>"
      },
      "target" : [{
        "reference" : "MessageHeader/7969a2b7-3ff4-4802-9246-8ed74102ed73"
      }],
      "occurredDateTime" : "2024-09-16T08:30:00+01:00",
      "recorded" : "2024-09-16T08:30:00+01:00",
      "activity" : {
        "coding" : [{
          "system" : "http://medcomfhir.dk/ig/terminology/CodeSystem/medcom-messaging-activityCodes",
          "code" : "new-message"
        }]
      },
      "agent" : [{
        "who" : {
          "reference" : "Organization/454aafa3-8ecb-4c0b-9696-eee6cce6c498"
        }
      }],
      "entity" : [{
        "role" : "source",
        "what" : {
          "identifier" : {
            "value" : "urn:uuid:dc9665dd-b9c3-4349-af08-e9dd61d0e211"
          }
        }
      }]
    }
  }]
}