{
  "resourceType" : "Bundle",
  "id" : "68f5c0f8-e33e-4302-89b0-cdea52801ec9",
  "meta" : {
    "profile" : ["http://medcomfhir.dk/ig/carecommunication/StructureDefinition/medcom-careCommunication-message"]
  },
  "type" : "message",
  "timestamp" : "2024-08-18T12:00:00+01:00",
  "entry" : [{
    "fullUrl" : "https://medcomfhir.dk/ig/carecommunication/MessageHeader/221b6439-c282-4bf9-9ddc-8c2b8975e809",
    "resource" : {
      "resourceType" : "MessageHeader",
      "id" : "221b6439-c282-4bf9-9ddc-8c2b8975e809",
      "meta" : {
        "profile" : ["http://medcomfhir.dk/ig/carecommunication/StructureDefinition/medcom-careCommunication-messageHeader"]
      },
      "text" : {
        "status" : "generated",
        "div" : "<div xmlns=\"http://www.w3.org/1999/xhtml\"><a name=\"MessageHeader_221b6439-c282-4bf9-9ddc-8c2b8975e809\"> </a><p class=\"res-header-id\"><b>Generated Narrative: MessageHeader 221b6439-c282-4bf9-9ddc-8c2b8975e809</b></p><a name=\"221b6439-c282-4bf9-9ddc-8c2b8975e809\"> </a><a name=\"hc221b6439-c282-4bf9-9ddc-8c2b8975e809\"> </a><a name=\"221b6439-c282-4bf9-9ddc-8c2b8975e809-da-DK\"> </a><p><b>event</b>: <a href=\"http://medcomfhir.dk/ig/terminology/1.7.0/CodeSystem-medcom-messaging-eventCodes.html#medcom-messaging-eventCodes-care-communication-message\">MedComMessagingEventCodes</a> care-communication-message: Care Communication Message</p><h3>Destinations</h3><table class=\"grid\"><tr><td style=\"display: none\">-</td><td><b>Extension</b></td><td><b>Endpoint</b></td><td><b>Receiver</b></td></tr><tr><td style=\"display: none\">*</td><td/><td><a href=\"https://sor2.sum.dsdn.dk/#id=441211000016000\">https://sor2.sum.dsdn.dk/#id=441211000016000</a></td><td><a href=\"Organization-558786fe-d4c0-474d-ac12-5b290619bdbf.html\">Organization: identifier = https://www.gs1.org/gln#5790001987244,urn:oid:1.2.208.176.1.1#441211000016000</a></td></tr></table><p><b>sender</b>: <a href=\"Organization-5efd9dfc-9fc6-4289-942a-e56c24cb4e05.html\">Organization: identifier = https://www.gs1.org/gln#5790002626814,urn:oid:1.2.208.176.1.1#1339531000016004</a></p><h3>Sources</h3><table class=\"grid\"><tr><td style=\"display: none\">-</td><td><b>Endpoint</b></td></tr><tr><td style=\"display: none\">*</td><td><a href=\"https://sor2.sum.dsdn.dk/#id=1339531000016004\">https://sor2.sum.dsdn.dk/#id=1339531000016004</a></td></tr></table><p><b>focus</b>: <a href=\"Communication-bde891c9-d099-4af4-9dc2-6b4e60940dfc.html\">Communication: identifier = urn:uuid:afe59274-01a4-42b1-8bf4-a7cf907aac53; status = unknown; category = Training</a></p><p><b>definition</b>: <code>http://medcomfhir.dk/ig/carecommunication/medcom-careCommunication-message-definition|4.0.0</code></p></div>"
      },
      "eventCoding" : {
        "system" : "http://medcomfhir.dk/ig/terminology/CodeSystem/medcom-messaging-eventCodes",
        "code" : "care-communication-message"
      },
      "destination" : [{
        "extension" : [{
          "url" : "http://medcomfhir.dk/ig/messaging/StructureDefinition/medcom-messaging-destinationUseExtension",
          "valueCoding" : {
            "system" : "http://medcomfhir.dk/ig/terminology/CodeSystem/medcom-messaging-destinationUse",
            "code" : "primary"
          }
        }],
        "endpoint" : "https://sor2.sum.dsdn.dk/#id=441211000016000",
        "receiver" : {
          "reference" : "Organization/558786fe-d4c0-474d-ac12-5b290619bdbf"
        }
      }],
      "sender" : {
        "reference" : "Organization/5efd9dfc-9fc6-4289-942a-e56c24cb4e05"
      },
      "source" : {
        "endpoint" : "https://sor2.sum.dsdn.dk/#id=1339531000016004"
      },
      "focus" : [{
        "reference" : "Communication/bde891c9-d099-4af4-9dc2-6b4e60940dfc"
      }],
      "definition" : "http://medcomfhir.dk/ig/carecommunication/medcom-careCommunication-message-definition|4.0.0"
    }
  },
  {
    "fullUrl" : "https://medcomfhir.dk/ig/carecommunication/Patient/506544db-a78e-4f74-bdcb-95e9951c9fd1",
    "resource" : {
      "resourceType" : "Patient",
      "id" : "506544db-a78e-4f74-bdcb-95e9951c9fd1",
      "meta" : {
        "profile" : ["http://medcomfhir.dk/ig/core/StructureDefinition/medcom-core-patient"]
      },
      "text" : {
        "status" : "generated",
        "div" : "<div xmlns=\"http://www.w3.org/1999/xhtml\"><a name=\"Patient_506544db-a78e-4f74-bdcb-95e9951c9fd1\"> </a><p class=\"res-header-id\"><b>Generated Narrative: Patient 506544db-a78e-4f74-bdcb-95e9951c9fd1</b></p><a name=\"506544db-a78e-4f74-bdcb-95e9951c9fd1\"> </a><a name=\"hc506544db-a78e-4f74-bdcb-95e9951c9fd1\"> </a><a name=\"506544db-a78e-4f74-bdcb-95e9951c9fd1-da-DK\"> </a><p style=\"border: 1px #661aff solid; background-color: #e6e6ff; padding: 10px;\">Elmer (official) (no stated gender), DoB Unknown ( urn:oid:1.2.208.176.1.2#2509479989)</p><hr/></div>"
      },
      "identifier" : [{
        "system" : "urn:oid:1.2.208.176.1.2",
        "value" : "2509479989"
      }],
      "name" : [{
        "use" : "official",
        "family" : "Elmer"
      }]
    }
  },
  {
    "fullUrl" : "https://medcomfhir.dk/ig/carecommunication/Communication/bde891c9-d099-4af4-9dc2-6b4e60940dfc",
    "resource" : {
      "resourceType" : "Communication",
      "id" : "bde891c9-d099-4af4-9dc2-6b4e60940dfc",
      "meta" : {
        "profile" : ["http://medcomfhir.dk/ig/carecommunication/StructureDefinition/medcom-careCommunication-communication"]
      },
      "text" : {
        "status" : "generated",
        "div" : "<div xmlns=\"http://www.w3.org/1999/xhtml\"><a name=\"Communication_bde891c9-d099-4af4-9dc2-6b4e60940dfc\"> </a><p class=\"res-header-id\"><b>Generated Narrative: Communication bde891c9-d099-4af4-9dc2-6b4e60940dfc</b></p><a name=\"bde891c9-d099-4af4-9dc2-6b4e60940dfc\"> </a><a name=\"hcbde891c9-d099-4af4-9dc2-6b4e60940dfc\"> </a><a name=\"bde891c9-d099-4af4-9dc2-6b4e60940dfc-da-DK\"> </a><p><b>identifier</b>: urn:uuid:afe59274-01a4-42b1-8bf4-a7cf907aac53</p><p><b>status</b>: Unknown</p><p><b>category</b>: <span title=\"Codes:{http://medcomfhir.dk/ig/terminology/CodeSystem/medcom-careCommunication-categoryCodes training}\">Training</span></p><p><b>subject</b>: <a href=\"Patient-506544db-a78e-4f74-bdcb-95e9951c9fd1.html\">Elmer (official) (no stated gender), DoB Unknown ( urn:oid:1.2.208.176.1.2#2509479989)</a></p><blockquote><p><b>payload</b></p><p><b>content</b>: Til rette vedkommende. Som aftalt pr.tlf. dd. vedrørende ovenstående patient: Vi vurderer at funktionsevnen for Spise og for Drikke skal ændres til Moderat. /Venlig hilsen Hjemmesygeplejerske K. Hansen</p></blockquote></div>"
      },
      "identifier" : [{
        "value" : "urn:uuid:afe59274-01a4-42b1-8bf4-a7cf907aac53"
      }],
      "status" : "unknown",
      "category" : [{
        "coding" : [{
          "system" : "http://medcomfhir.dk/ig/terminology/CodeSystem/medcom-careCommunication-categoryCodes",
          "code" : "training"
        }]
      }],
      "subject" : {
        "reference" : "Patient/506544db-a78e-4f74-bdcb-95e9951c9fd1"
      },
      "payload" : [{
        "extension" : [{
          "url" : "http://medcomfhir.dk/ig/core/StructureDefinition/medcom-core-datetime-extension",
          "valueDateTime" : "2024-08-18T12:00:00+01:00"
        },
        {
          "url" : "http://medcomfhir.dk/ig/core/StructureDefinition/medcom-core-identifier-extension",
          "valueIdentifier" : {
            "value" : "urn:uuid:09479fd9-8694-48cf-88b5-c957ee6d561a",
            "assigner" : {
              "reference" : "Organization/558786fe-d4c0-474d-ac12-5b290619bdbf"
            }
          }
        },
        {
          "url" : "http://medcomfhir.dk/ig/core/StructureDefinition/medcom-core-practitioner-extension",
          "valueReference" : {
            "reference" : "PractitionerRole/147b1985-76d3-428f-bb91-e397017c5607"
          }
        },
        {
          "url" : "http://medcomfhir.dk/ig/core/StructureDefinition/medcom-core-contact-extension",
          "valueContactPoint" : {
            "system" : "phone",
            "value" : "38683868"
          }
        }],
        "contentString" : "Til rette vedkommende. Som aftalt pr.tlf. dd. vedrørende ovenstående patient: Vi vurderer at funktionsevnen for Spise og for Drikke skal ændres til Moderat. /Venlig hilsen Hjemmesygeplejerske K. Hansen"
      }]
    }
  },
  {
    "fullUrl" : "https://medcomfhir.dk/ig/carecommunication/PractitionerRole/147b1985-76d3-428f-bb91-e397017c5607",
    "resource" : {
      "resourceType" : "PractitionerRole",
      "id" : "147b1985-76d3-428f-bb91-e397017c5607",
      "meta" : {
        "profile" : ["http://medcomfhir.dk/ig/core/StructureDefinition/medcom-core-practitionerrole"]
      },
      "text" : {
        "status" : "generated",
        "div" : "<div xmlns=\"http://www.w3.org/1999/xhtml\"><a name=\"PractitionerRole_147b1985-76d3-428f-bb91-e397017c5607\"> </a><p class=\"res-header-id\"><b>Generated Narrative: PractitionerRole 147b1985-76d3-428f-bb91-e397017c5607</b></p><a name=\"147b1985-76d3-428f-bb91-e397017c5607\"> </a><a name=\"hc147b1985-76d3-428f-bb91-e397017c5607\"> </a><a name=\"147b1985-76d3-428f-bb91-e397017c5607-da-DK\"> </a><p><b>practitioner</b>: <a href=\"Practitioner-48dc7a52-19f5-42c6-ba7c-48ebed7c6cc9.html\">Practitioner Michael Burns </a></p><p><b>code</b>: <span title=\"Codes:{http://terminology.hl7.org/CodeSystem/v3-NullFlavor NAVU}\">Not available</span></p></div>"
      },
      "practitioner" : {
        "reference" : "Practitioner/48dc7a52-19f5-42c6-ba7c-48ebed7c6cc9"
      },
      "code" : [{
        "coding" : [{
          "system" : "http://terminology.hl7.org/CodeSystem/v3-NullFlavor",
          "code" : "NAVU"
        }]
      }]
    }
  },
  {
    "fullUrl" : "https://medcomfhir.dk/ig/carecommunication/Practitioner/48dc7a52-19f5-42c6-ba7c-48ebed7c6cc9",
    "resource" : {
      "resourceType" : "Practitioner",
      "id" : "48dc7a52-19f5-42c6-ba7c-48ebed7c6cc9",
      "meta" : {
        "profile" : ["http://medcomfhir.dk/ig/core/StructureDefinition/medcom-core-practitioner"]
      },
      "text" : {
        "status" : "generated",
        "div" : "<div xmlns=\"http://www.w3.org/1999/xhtml\"><a name=\"Practitioner_48dc7a52-19f5-42c6-ba7c-48ebed7c6cc9\"> </a><p class=\"res-header-id\"><b>Generated Narrative: Practitioner 48dc7a52-19f5-42c6-ba7c-48ebed7c6cc9</b></p><a name=\"48dc7a52-19f5-42c6-ba7c-48ebed7c6cc9\"> </a><a name=\"hc48dc7a52-19f5-42c6-ba7c-48ebed7c6cc9\"> </a><a name=\"48dc7a52-19f5-42c6-ba7c-48ebed7c6cc9-da-DK\"> </a><p><b>name</b>: Michael Burns </p></div>"
      },
      "name" : [{
        "family" : "Burns",
        "given" : ["Michael"]
      }]
    }
  },
  {
    "fullUrl" : "https://medcomfhir.dk/ig/carecommunication/Organization/558786fe-d4c0-474d-ac12-5b290619bdbf",
    "resource" : {
      "resourceType" : "Organization",
      "id" : "558786fe-d4c0-474d-ac12-5b290619bdbf",
      "meta" : {
        "profile" : ["http://medcomfhir.dk/ig/messaging/StructureDefinition/medcom-messaging-organization"]
      },
      "text" : {
        "status" : "generated",
        "div" : "<div xmlns=\"http://www.w3.org/1999/xhtml\"><a name=\"Organization_558786fe-d4c0-474d-ac12-5b290619bdbf\"> </a><p class=\"res-header-id\"><b>Generated Narrative: Organization 558786fe-d4c0-474d-ac12-5b290619bdbf</b></p><a name=\"558786fe-d4c0-474d-ac12-5b290619bdbf\"> </a><a name=\"hc558786fe-d4c0-474d-ac12-5b290619bdbf\"> </a><a name=\"558786fe-d4c0-474d-ac12-5b290619bdbf-da-DK\"> </a><p><b>identifier</b>: <code>https://www.gs1.org/gln</code>/5790001987244, <code>urn:oid:1.2.208.176.1.1</code>/441211000016000</p></div>"
      },
      "identifier" : [{
        "system" : "https://www.gs1.org/gln",
        "value" : "5790001987244"
      },
      {
        "system" : "urn:oid:1.2.208.176.1.1",
        "value" : "441211000016000"
      }]
    }
  },
  {
    "fullUrl" : "https://medcomfhir.dk/ig/carecommunication/Organization/5efd9dfc-9fc6-4289-942a-e56c24cb4e05",
    "resource" : {
      "resourceType" : "Organization",
      "id" : "5efd9dfc-9fc6-4289-942a-e56c24cb4e05",
      "meta" : {
        "profile" : ["http://medcomfhir.dk/ig/messaging/StructureDefinition/medcom-messaging-organization"]
      },
      "text" : {
        "status" : "generated",
        "div" : "<div xmlns=\"http://www.w3.org/1999/xhtml\"><a name=\"Organization_5efd9dfc-9fc6-4289-942a-e56c24cb4e05\"> </a><p class=\"res-header-id\"><b>Generated Narrative: Organization 5efd9dfc-9fc6-4289-942a-e56c24cb4e05</b></p><a name=\"5efd9dfc-9fc6-4289-942a-e56c24cb4e05\"> </a><a name=\"hc5efd9dfc-9fc6-4289-942a-e56c24cb4e05\"> </a><a name=\"5efd9dfc-9fc6-4289-942a-e56c24cb4e05-da-DK\"> </a><p><b>identifier</b>: <code>https://www.gs1.org/gln</code>/5790002626814, <code>urn:oid:1.2.208.176.1.1</code>/1339531000016004</p></div>"
      },
      "identifier" : [{
        "system" : "https://www.gs1.org/gln",
        "value" : "5790002626814"
      },
      {
        "system" : "urn:oid:1.2.208.176.1.1",
        "value" : "1339531000016004"
      }]
    }
  },
  {
    "fullUrl" : "https://medcomfhir.dk/ig/carecommunication/Provenance/0fc624e5-3455-4272-bf97-e018817156b5",
    "resource" : {
      "resourceType" : "Provenance",
      "id" : "0fc624e5-3455-4272-bf97-e018817156b5",
      "meta" : {
        "profile" : ["http://medcomfhir.dk/ig/carecommunication/StructureDefinition/medcom-careCommunication-provenance"]
      },
      "text" : {
        "status" : "generated",
        "div" : "<div xmlns=\"http://www.w3.org/1999/xhtml\"><a name=\"Provenance_0fc624e5-3455-4272-bf97-e018817156b5\"> </a><p class=\"res-header-id\"><b>Generated Narrative: Provenance 0fc624e5-3455-4272-bf97-e018817156b5</b></p><a name=\"0fc624e5-3455-4272-bf97-e018817156b5\"> </a><a name=\"hc0fc624e5-3455-4272-bf97-e018817156b5\"> </a><a name=\"0fc624e5-3455-4272-bf97-e018817156b5-da-DK\"> </a><p>Provenance for <a href=\"MessageHeader-221b6439-c282-4bf9-9ddc-8c2b8975e809.html\">MessageHeader: event[x] = Care Communication Message (MedComMessagingEventCodes#care-communication-message); definition = http://medcomfhir.dk/ig/carecommunication/medcom-careCommunication-message-definition|4.0.0</a></p><p>Summary</p><table class=\"grid\"><tr><td>Occurrence</td><td>2024-08-18 12:00:00+0100</td></tr><tr><td>Recorded</td><td>2024-08-18 12:00:00+0100</td></tr><tr><td>Activity</td><td><span title=\"Codes:{http://medcomfhir.dk/ig/terminology/CodeSystem/medcom-messaging-activityCodes new-message}\">A new message has been sent</span></td></tr></table><p><b>Agents</b></p><table class=\"grid\"><tr><td><b>who</b></td></tr><tr><td><a href=\"Organization-558786fe-d4c0-474d-ac12-5b290619bdbf.html\">Organization: identifier = https://www.gs1.org/gln#5790001987244,urn:oid:1.2.208.176.1.1#441211000016000</a></td></tr></table></div>"
      },
      "target" : [{
        "reference" : "MessageHeader/221b6439-c282-4bf9-9ddc-8c2b8975e809"
      }],
      "occurredDateTime" : "2024-08-18T12:00:00+01:00",
      "recorded" : "2024-08-18T12:00:00+01:00",
      "activity" : {
        "coding" : [{
          "system" : "http://medcomfhir.dk/ig/terminology/CodeSystem/medcom-messaging-activityCodes",
          "code" : "new-message"
        }]
      },
      "agent" : [{
        "who" : {
          "reference" : "Organization/558786fe-d4c0-474d-ac12-5b290619bdbf"
        }
      }],
      "entity" : [{
        "role" : "source",
        "what" : {
          "identifier" : {
            "value" : "urn:uuid:09479fd9-8694-48cf-88b5-c957ee6d561a"
          }
        }
      }]
    }
  }]
}