{
  "resourceType" : "Bundle",
  "id" : "6e5d7a74-a88a-47a3-8362-20396e9db332",
  "meta" : {
    "profile" : ["http://medcomfhir.dk/ig/carecommunication/StructureDefinition/medcom-careCommunication-message"]
  },
  "type" : "message",
  "timestamp" : "2024-08-17T14:00:00Z",
  "entry" : [{
    "fullUrl" : "https://medcomfhir.dk/ig/carecommunication/MessageHeader/39806945-e72d-493f-bec3-1c971fe39dca",
    "resource" : {
      "resourceType" : "MessageHeader",
      "id" : "39806945-e72d-493f-bec3-1c971fe39dca",
      "meta" : {
        "profile" : ["http://medcomfhir.dk/ig/carecommunication/StructureDefinition/medcom-careCommunication-messageHeader"]
      },
      "text" : {
        "status" : "generated",
        "div" : "<div xmlns=\"http://www.w3.org/1999/xhtml\"><a name=\"MessageHeader_39806945-e72d-493f-bec3-1c971fe39dca\"> </a><p class=\"res-header-id\"><b>Generated Narrative: MessageHeader 39806945-e72d-493f-bec3-1c971fe39dca</b></p><a name=\"39806945-e72d-493f-bec3-1c971fe39dca\"> </a><a name=\"hc39806945-e72d-493f-bec3-1c971fe39dca\"> </a><a name=\"39806945-e72d-493f-bec3-1c971fe39dca-da-DK\"> </a><p><b>event</b>: <a href=\"http://medcomfhir.dk/ig/terminology/1.7.0/CodeSystem-medcom-messaging-eventCodes.html#medcom-messaging-eventCodes-care-communication-message\">MedComMessagingEventCodes care-communication-message</a>: Care Communication Message</p><h3>Destinations</h3><table class=\"grid\"><tr><td style=\"display: none\">-</td><td><b>Extension</b></td><td><b>Endpoint</b></td><td><b>Receiver</b></td></tr><tr><td style=\"display: none\">*</td><td/><td><a href=\"https://sor2.sum.dsdn.dk/#id=1339531000016004\">https://sor2.sum.dsdn.dk/#id=1339531000016004</a></td><td><a href=\"Organization-baa210c3-9d09-4647-8e1c-d177ac9c1805.html\">Organization Lægeklinik Ølgod</a></td></tr></table><p><b>sender</b>: <a href=\"Organization-74563c71-15be-4f7a-9281-3d057574cd6b.html\">Organization Klinik for Ældresygdomme, AUH, Skejby</a></p><h3>Sources</h3><table class=\"grid\"><tr><td style=\"display: none\">-</td><td><b>Endpoint</b></td></tr><tr><td style=\"display: none\">*</td><td><a href=\"https://sor2.sum.dsdn.dk/#id=441211000016000\">https://sor2.sum.dsdn.dk/#id=441211000016000</a></td></tr></table><p><b>focus</b>: <a href=\"Communication-acbf1e41-eeba-464c-9e5e-c05f970e407f.html\">Communication: identifier = urn:uuid:2ee940d6-b2b8-4489-a0b0-0ae5a477b618; status = unknown; category = Alcohol and drug treatment; topic = </a></p><p><b>definition</b>: <code>http://medcomfhir.dk/ig/carecommunication/medcom-careCommunication-message-definition|4.0.0</code></p></div>"
      },
      "eventCoding" : {
        "system" : "http://medcomfhir.dk/ig/terminology/CodeSystem/medcom-messaging-eventCodes",
        "code" : "care-communication-message"
      },
      "destination" : [{
        "extension" : [{
          "url" : "http://medcomfhir.dk/ig/messaging/StructureDefinition/medcom-messaging-destinationUseExtension",
          "valueCoding" : {
            "system" : "http://medcomfhir.dk/ig/terminology/CodeSystem/medcom-messaging-destinationUse",
            "code" : "primary"
          }
        }],
        "endpoint" : "https://sor2.sum.dsdn.dk/#id=1339531000016004",
        "receiver" : {
          "reference" : "Organization/baa210c3-9d09-4647-8e1c-d177ac9c1805"
        }
      }],
      "sender" : {
        "reference" : "Organization/74563c71-15be-4f7a-9281-3d057574cd6b"
      },
      "source" : {
        "endpoint" : "https://sor2.sum.dsdn.dk/#id=441211000016000"
      },
      "focus" : [{
        "reference" : "Communication/acbf1e41-eeba-464c-9e5e-c05f970e407f"
      }],
      "definition" : "http://medcomfhir.dk/ig/carecommunication/medcom-careCommunication-message-definition|4.0.0"
    }
  },
  {
    "fullUrl" : "https://medcomfhir.dk/ig/carecommunication/Patient/44803bc6-6836-4382-8206-b45748dee5fd",
    "resource" : {
      "resourceType" : "Patient",
      "id" : "44803bc6-6836-4382-8206-b45748dee5fd",
      "meta" : {
        "profile" : ["http://medcomfhir.dk/ig/core/StructureDefinition/medcom-core-patient"]
      },
      "text" : {
        "status" : "generated",
        "div" : "<div xmlns=\"http://www.w3.org/1999/xhtml\"><a name=\"Patient_44803bc6-6836-4382-8206-b45748dee5fd\"> </a><p class=\"res-header-id\"><b>Generated Narrative: Patient 44803bc6-6836-4382-8206-b45748dee5fd</b></p><a name=\"44803bc6-6836-4382-8206-b45748dee5fd\"> </a><a name=\"hc44803bc6-6836-4382-8206-b45748dee5fd\"> </a><a name=\"44803bc6-6836-4382-8206-b45748dee5fd-da-DK\"> </a><p style=\"border: 1px #661aff solid; background-color: #e6e6ff; padding: 10px;\">Elmer (official) (no stated gender), DoB Unknown ( urn:oid:1.2.208.176.1.2#2509479989)</p><hr/></div>"
      },
      "identifier" : [{
        "system" : "urn:oid:1.2.208.176.1.2",
        "value" : "2509479989"
      }],
      "name" : [{
        "use" : "official",
        "family" : "Elmer"
      }]
    }
  },
  {
    "fullUrl" : "https://medcomfhir.dk/ig/carecommunication/Communication/acbf1e41-eeba-464c-9e5e-c05f970e407f",
    "resource" : {
      "resourceType" : "Communication",
      "id" : "acbf1e41-eeba-464c-9e5e-c05f970e407f",
      "meta" : {
        "profile" : ["http://medcomfhir.dk/ig/carecommunication/StructureDefinition/medcom-careCommunication-communication"]
      },
      "text" : {
        "status" : "extensions",
        "div" : "<div xmlns=\"http://www.w3.org/1999/xhtml\"><a name=\"Communication_acbf1e41-eeba-464c-9e5e-c05f970e407f\"> </a><p class=\"res-header-id\"><b>Generated Narrative: Communication acbf1e41-eeba-464c-9e5e-c05f970e407f</b></p><a name=\"acbf1e41-eeba-464c-9e5e-c05f970e407f\"> </a><a name=\"hcacbf1e41-eeba-464c-9e5e-c05f970e407f\"> </a><a name=\"acbf1e41-eeba-464c-9e5e-c05f970e407f-da-DK\"> </a><p><b>identifier</b>: urn:uuid:2ee940d6-b2b8-4489-a0b0-0ae5a477b618</p><p><b>status</b>: Unknown</p><p><b>category</b>: <span title=\"Codes:{http://medcomfhir.dk/ig/terminology/CodeSystem/medcom-careCommunication-categoryCodes alcohol-and-drug-treatment}\">Alcohol and drug treatment</span></p><p><b>subject</b>: <a href=\"Patient-44803bc6-6836-4382-8206-b45748dee5fd.html\">Elmer (official) (no stated gender), DoB Unknown ( urn:oid:1.2.208.176.1.2#2509479989)</a></p><p><b>topic</b>: <span title=\"Codes:\">Kritisk tilstand</span></p><blockquote><p><b>payload</b></p><p><b>DateTimeExtension</b>: 2024-08-17 14:00:00+0000</p><p><b>IdentifierExtension</b>: urn:uuid:33225941-7b0d-4f83-a2b0-05e4ba1e11f5</p><p><b>PractitionerExtension</b>: <a href=\"PractitionerRole-81b9df87-23b5-4076-ba79-ec1247eab310.html\">PractitionerRole Sygeplejerske</a></p><p><b>ContactExtension</b>: <a href=\"tel:+4538683868\">+4538683868</a></p><p><b>content</b>: Til rette vedkommende. Mon I har vist det rigtige tidspunkt? /Hilsen Michael, sygeplejerske.</p></blockquote></div>"
      },
      "identifier" : [{
        "value" : "urn:uuid:2ee940d6-b2b8-4489-a0b0-0ae5a477b618"
      }],
      "status" : "unknown",
      "category" : [{
        "coding" : [{
          "system" : "http://medcomfhir.dk/ig/terminology/CodeSystem/medcom-careCommunication-categoryCodes",
          "code" : "alcohol-and-drug-treatment"
        }]
      }],
      "subject" : {
        "reference" : "Patient/44803bc6-6836-4382-8206-b45748dee5fd"
      },
      "topic" : {
        "text" : "Kritisk tilstand"
      },
      "payload" : [{
        "extension" : [{
          "url" : "http://medcomfhir.dk/ig/core/StructureDefinition/medcom-core-datetime-extension",
          "valueDateTime" : "2024-08-17T14:00:00Z"
        },
        {
          "url" : "http://medcomfhir.dk/ig/core/StructureDefinition/medcom-core-identifier-extension",
          "valueIdentifier" : {
            "value" : "urn:uuid:33225941-7b0d-4f83-a2b0-05e4ba1e11f5",
            "assigner" : {
              "reference" : "Organization/74563c71-15be-4f7a-9281-3d057574cd6b"
            }
          }
        },
        {
          "url" : "http://medcomfhir.dk/ig/core/StructureDefinition/medcom-core-practitioner-extension",
          "valueReference" : {
            "reference" : "PractitionerRole/81b9df87-23b5-4076-ba79-ec1247eab310"
          }
        },
        {
          "url" : "http://medcomfhir.dk/ig/core/StructureDefinition/medcom-core-contact-extension",
          "valueContactPoint" : {
            "system" : "phone",
            "value" : "+4538683868"
          }
        }],
        "contentString" : "Til rette vedkommende. Mon I har vist det rigtige tidspunkt? /Hilsen Michael, sygeplejerske."
      }]
    }
  },
  {
    "fullUrl" : "https://medcomfhir.dk/ig/carecommunication/PractitionerRole/81b9df87-23b5-4076-ba79-ec1247eab310",
    "resource" : {
      "resourceType" : "PractitionerRole",
      "id" : "81b9df87-23b5-4076-ba79-ec1247eab310",
      "meta" : {
        "profile" : ["http://medcomfhir.dk/ig/core/StructureDefinition/medcom-core-practitionerrole"]
      },
      "text" : {
        "status" : "generated",
        "div" : "<div xmlns=\"http://www.w3.org/1999/xhtml\"><a name=\"PractitionerRole_81b9df87-23b5-4076-ba79-ec1247eab310\"> </a><p class=\"res-header-id\"><b>Generated Narrative: PractitionerRole 81b9df87-23b5-4076-ba79-ec1247eab310</b></p><a name=\"81b9df87-23b5-4076-ba79-ec1247eab310\"> </a><a name=\"hc81b9df87-23b5-4076-ba79-ec1247eab310\"> </a><a name=\"81b9df87-23b5-4076-ba79-ec1247eab310-da-DK\"> </a><p><b>practitioner</b>: <a href=\"Practitioner-b13960d9-c806-40d8-8bee-7acdefc3d768.html\">Practitioner Michael Burns </a></p><p><b>code</b>: <span title=\"Codes:{http://medcomfhir.dk/ig/terminology/CodeSystem/medcom-core-PractitionerRolesSKSadministrativ sygeplejerske}\">Sygeplejerske</span></p></div>"
      },
      "practitioner" : {
        "reference" : "Practitioner/b13960d9-c806-40d8-8bee-7acdefc3d768"
      },
      "code" : [{
        "coding" : [{
          "system" : "http://medcomfhir.dk/ig/terminology/CodeSystem/medcom-core-PractitionerRolesSKSadministrativ",
          "code" : "sygeplejerske"
        }]
      }]
    }
  },
  {
    "fullUrl" : "https://medcomfhir.dk/ig/carecommunication/Practitioner/b13960d9-c806-40d8-8bee-7acdefc3d768",
    "resource" : {
      "resourceType" : "Practitioner",
      "id" : "b13960d9-c806-40d8-8bee-7acdefc3d768",
      "meta" : {
        "profile" : ["http://medcomfhir.dk/ig/core/StructureDefinition/medcom-core-practitioner"]
      },
      "text" : {
        "status" : "generated",
        "div" : "<div xmlns=\"http://www.w3.org/1999/xhtml\"><a name=\"Practitioner_b13960d9-c806-40d8-8bee-7acdefc3d768\"> </a><p class=\"res-header-id\"><b>Generated Narrative: Practitioner b13960d9-c806-40d8-8bee-7acdefc3d768</b></p><a name=\"b13960d9-c806-40d8-8bee-7acdefc3d768\"> </a><a name=\"hcb13960d9-c806-40d8-8bee-7acdefc3d768\"> </a><a name=\"b13960d9-c806-40d8-8bee-7acdefc3d768-da-DK\"> </a><p><b>name</b>: Michael Burns </p></div>"
      },
      "name" : [{
        "family" : "Burns",
        "given" : ["Michael"]
      }]
    }
  },
  {
    "fullUrl" : "https://medcomfhir.dk/ig/carecommunication/Organization/74563c71-15be-4f7a-9281-3d057574cd6b",
    "resource" : {
      "resourceType" : "Organization",
      "id" : "74563c71-15be-4f7a-9281-3d057574cd6b",
      "meta" : {
        "profile" : ["http://medcomfhir.dk/ig/messaging/StructureDefinition/medcom-messaging-organization"]
      },
      "text" : {
        "status" : "generated",
        "div" : "<div xmlns=\"http://www.w3.org/1999/xhtml\"><a name=\"Organization_74563c71-15be-4f7a-9281-3d057574cd6b\"> </a><p class=\"res-header-id\"><b>Generated Narrative: Organization 74563c71-15be-4f7a-9281-3d057574cd6b</b></p><a name=\"74563c71-15be-4f7a-9281-3d057574cd6b\"> </a><a name=\"hc74563c71-15be-4f7a-9281-3d057574cd6b\"> </a><a name=\"74563c71-15be-4f7a-9281-3d057574cd6b-da-DK\"> </a><p><b>identifier</b>: <code>https://www.gs1.org/gln</code>/5790001987244, <code>urn:oid:1.2.208.176.1.1</code>/441211000016000</p><p><b>name</b>: Klinik for Ældresygdomme, AUH, Skejby</p></div>"
      },
      "identifier" : [{
        "system" : "https://www.gs1.org/gln",
        "value" : "5790001987244"
      },
      {
        "system" : "urn:oid:1.2.208.176.1.1",
        "value" : "441211000016000"
      }],
      "name" : "Klinik for Ældresygdomme, AUH, Skejby"
    }
  },
  {
    "fullUrl" : "https://medcomfhir.dk/ig/carecommunication/Organization/baa210c3-9d09-4647-8e1c-d177ac9c1805",
    "resource" : {
      "resourceType" : "Organization",
      "id" : "baa210c3-9d09-4647-8e1c-d177ac9c1805",
      "meta" : {
        "profile" : ["http://medcomfhir.dk/ig/messaging/StructureDefinition/medcom-messaging-organization"]
      },
      "text" : {
        "status" : "generated",
        "div" : "<div xmlns=\"http://www.w3.org/1999/xhtml\"><a name=\"Organization_baa210c3-9d09-4647-8e1c-d177ac9c1805\"> </a><p class=\"res-header-id\"><b>Generated Narrative: Organization baa210c3-9d09-4647-8e1c-d177ac9c1805</b></p><a name=\"baa210c3-9d09-4647-8e1c-d177ac9c1805\"> </a><a name=\"hcbaa210c3-9d09-4647-8e1c-d177ac9c1805\"> </a><a name=\"baa210c3-9d09-4647-8e1c-d177ac9c1805-da-DK\"> </a><p><b>identifier</b>: <code>https://www.gs1.org/gln</code>/5790002626814, <code>urn:oid:1.2.208.176.1.1</code>/1339531000016004</p><p><b>name</b>: Lægeklinik Ølgod</p></div>"
      },
      "identifier" : [{
        "system" : "https://www.gs1.org/gln",
        "value" : "5790002626814"
      },
      {
        "system" : "urn:oid:1.2.208.176.1.1",
        "value" : "1339531000016004"
      }],
      "name" : "Lægeklinik Ølgod"
    }
  },
  {
    "fullUrl" : "https://medcomfhir.dk/ig/carecommunication/Provenance/2ee940d6-b2b8-4489-a0b0-0ae5a477b618",
    "resource" : {
      "resourceType" : "Provenance",
      "id" : "2ee940d6-b2b8-4489-a0b0-0ae5a477b618",
      "meta" : {
        "profile" : ["http://medcomfhir.dk/ig/carecommunication/StructureDefinition/medcom-careCommunication-provenance"]
      },
      "text" : {
        "status" : "generated",
        "div" : "<div xmlns=\"http://www.w3.org/1999/xhtml\"><a name=\"Provenance_2ee940d6-b2b8-4489-a0b0-0ae5a477b618\"> </a><p class=\"res-header-id\"><b>Generated Narrative: Provenance 2ee940d6-b2b8-4489-a0b0-0ae5a477b618</b></p><a name=\"2ee940d6-b2b8-4489-a0b0-0ae5a477b618\"> </a><a name=\"hc2ee940d6-b2b8-4489-a0b0-0ae5a477b618\"> </a><a name=\"2ee940d6-b2b8-4489-a0b0-0ae5a477b618-da-DK\"> </a><p>Provenance for <a href=\"MessageHeader-39806945-e72d-493f-bec3-1c971fe39dca.html\">MessageHeader: event[x] = Care Communication Message (MedComMessagingEventCodes#care-communication-message); definition = http://medcomfhir.dk/ig/carecommunication/medcom-careCommunication-message-definition|4.0.0</a></p><p>Summary</p><table class=\"grid\"><tr><td>Occurrence</td><td>2024-08-17 14:00:00+0000</td></tr><tr><td>Recorded</td><td>2024-08-17 14:00:00+0000</td></tr><tr><td>Activity</td><td><span title=\"Codes:{http://medcomfhir.dk/ig/terminology/CodeSystem/medcom-messaging-activityCodes new-message}\">A new message has been sent</span></td></tr></table><p><b>Agents</b></p><table class=\"grid\"><tr><td><b>who</b></td></tr><tr><td><a href=\"Organization-74563c71-15be-4f7a-9281-3d057574cd6b.html\">Organization Klinik for Ældresygdomme, AUH, Skejby</a></td></tr></table></div>"
      },
      "target" : [{
        "reference" : "MessageHeader/39806945-e72d-493f-bec3-1c971fe39dca"
      }],
      "occurredDateTime" : "2024-08-17T14:00:00Z",
      "recorded" : "2024-08-17T14:00:00Z",
      "activity" : {
        "coding" : [{
          "system" : "http://medcomfhir.dk/ig/terminology/CodeSystem/medcom-messaging-activityCodes",
          "code" : "new-message"
        }]
      },
      "agent" : [{
        "who" : {
          "reference" : "Organization/74563c71-15be-4f7a-9281-3d057574cd6b"
        }
      }],
      "entity" : [{
        "role" : "source",
        "what" : {
          "identifier" : {
            "value" : "urn:uuid:33225941-7b0d-4f83-a2b0-05e4ba1e11f5"
          }
        }
      }]
    }
  }]
}