<?xml version="1.0" encoding="UTF-8"?>

<Bundle xmlns="http://hl7.org/fhir">
  <id value="9c2371ff-09a0-4626-9fb9-f70645546361"/>
  <meta>
    <profile value="http://medcomfhir.dk/ig/carecommunication/StructureDefinition/medcom-careCommunication-message"/>
  </meta>
  <type value="message"/>
  <timestamp value="2024-09-10T15:20:00+01:00"/>
  <entry>
    <fullUrl value="https://medcomfhir.dk/ig/carecommunication/MessageHeader/3eadd00d-011b-4e2f-8f30-6658a6ee89e0"/>
    <resource>
      <MessageHeader>
        <id value="3eadd00d-011b-4e2f-8f30-6658a6ee89e0"/>
        <meta>
          <profile value="http://medcomfhir.dk/ig/carecommunication/StructureDefinition/medcom-careCommunication-messageHeader"/>
        </meta>
        <text>
          <status value="generated"/><div xmlns="http://www.w3.org/1999/xhtml"><a name="MessageHeader_3eadd00d-011b-4e2f-8f30-6658a6ee89e0"> </a><p class="res-header-id"><b>Generated Narrative: MessageHeader 3eadd00d-011b-4e2f-8f30-6658a6ee89e0</b></p><a name="3eadd00d-011b-4e2f-8f30-6658a6ee89e0"> </a><a name="hc3eadd00d-011b-4e2f-8f30-6658a6ee89e0"> </a><a name="3eadd00d-011b-4e2f-8f30-6658a6ee89e0-da-DK"> </a><p><b>event</b>: <a href="http://medcomfhir.dk/ig/terminology/1.7.0/CodeSystem-medcom-messaging-eventCodes.html#medcom-messaging-eventCodes-care-communication-message">MedComMessagingEventCodes care-communication-message</a>: Care Communication Message</p><h3>Destinations</h3><table class="grid"><tr><td style="display: none">-</td><td><b>Extension</b></td><td><b>Endpoint</b></td><td><b>Receiver</b></td></tr><tr><td style="display: none">*</td><td/><td><a href="https://sor2.sum.dsdn.dk/#id=328081000016004">https://sor2.sum.dsdn.dk/#id=328081000016004</a></td><td><a href="Organization-528f8b50-107d-44ad-a5e9-89b7891aedb1.html">Organization Hjemmesygeplejen, Aalborg kommune</a></td></tr></table><p><b>sender</b>: <a href="Organization-ec80691c-8d77-4424-9b6f-169560d602ad.html">Organization Lægeklinik Ølgod</a></p><h3>Sources</h3><table class="grid"><tr><td style="display: none">-</td><td><b>Endpoint</b></td></tr><tr><td style="display: none">*</td><td><a href="https://sor2.sum.dsdn.dk/#id=1339531000016004">https://sor2.sum.dsdn.dk/#id=1339531000016004</a></td></tr></table><p><b>focus</b>: <a href="Communication-7e6007ea-dd75-4f6f-bebe-9238957b0774.html">Communication: identifier = urn:uuid:b2090f8b-499e-46dc-ac78-43468e07ebc7; status = unknown; category = Examination Results; topic = </a></p><p><b>definition</b>: <code>http://medcomfhir.dk/ig/carecommunication/medcom-careCommunication-message-definition|4.0.0</code></p></div>
        </text>
        <eventCoding>
          <system value="http://medcomfhir.dk/ig/terminology/CodeSystem/medcom-messaging-eventCodes"/>
          <code value="care-communication-message"/>
        </eventCoding>
        <destination>
          <extension url="http://medcomfhir.dk/ig/messaging/StructureDefinition/medcom-messaging-destinationUseExtension">
            <valueCoding>
              <system value="http://medcomfhir.dk/ig/terminology/CodeSystem/medcom-messaging-destinationUse"/>
              <code value="primary"/>
            </valueCoding>
          </extension>
          <endpoint value="https://sor2.sum.dsdn.dk/#id=328081000016004"/>
          <receiver>
            <reference value="Organization/528f8b50-107d-44ad-a5e9-89b7891aedb1"/>
          </receiver>
        </destination>
        <sender>
          <reference value="Organization/ec80691c-8d77-4424-9b6f-169560d602ad"/>
        </sender>
        <source>
          <endpoint value="https://sor2.sum.dsdn.dk/#id=1339531000016004"/>
        </source>
        <focus>
          <reference value="Communication/7e6007ea-dd75-4f6f-bebe-9238957b0774"/>
        </focus>
        <definition value="http://medcomfhir.dk/ig/carecommunication/medcom-careCommunication-message-definition|4.0.0"/>
      </MessageHeader>
    </resource>
  </entry>
  <entry>
    <fullUrl value="https://medcomfhir.dk/ig/carecommunication/Patient/d4ac37e3-864b-4286-84c6-5ecdf4b550c1"/>
    <resource>
      <Patient>
        <id value="d4ac37e3-864b-4286-84c6-5ecdf4b550c1"/>
        <meta>
          <profile value="http://medcomfhir.dk/ig/core/StructureDefinition/medcom-core-patient"/>
        </meta>
        <text>
          <status value="generated"/><div xmlns="http://www.w3.org/1999/xhtml"><a name="Patient_d4ac37e3-864b-4286-84c6-5ecdf4b550c1"> </a><p class="res-header-id"><b>Generated Narrative: Patient d4ac37e3-864b-4286-84c6-5ecdf4b550c1</b></p><a name="d4ac37e3-864b-4286-84c6-5ecdf4b550c1"> </a><a name="hcd4ac37e3-864b-4286-84c6-5ecdf4b550c1"> </a><a name="d4ac37e3-864b-4286-84c6-5ecdf4b550c1-da-DK"> </a><p style="border: 1px #661aff solid; background-color: #e6e6ff; padding: 10px;">Bruno Test Elmer (official) (no stated gender), DoB Unknown ( urn:oid:1.2.208.176.1.2#2509479989)</p><hr/></div>
        </text>
        <identifier>
          <system value="urn:oid:1.2.208.176.1.2"/>
          <value value="2509479989"/>
        </identifier>
        <name>
          <use value="official"/>
          <family value="Elmer"/>
          <given value="Bruno"/>
          <given value="Test"/>
        </name>
      </Patient>
    </resource>
  </entry>
  <entry>
    <fullUrl value="https://medcomfhir.dk/ig/carecommunication/Communication/7e6007ea-dd75-4f6f-bebe-9238957b0774"/>
    <resource>
      <Communication>
        <id value="7e6007ea-dd75-4f6f-bebe-9238957b0774"/>
        <meta>
          <profile value="http://medcomfhir.dk/ig/carecommunication/StructureDefinition/medcom-careCommunication-communication"/>
        </meta>
        <text>
          <status value="extensions"/><div xmlns="http://www.w3.org/1999/xhtml"><a name="Communication_7e6007ea-dd75-4f6f-bebe-9238957b0774"> </a><p class="res-header-id"><b>Generated Narrative: Communication 7e6007ea-dd75-4f6f-bebe-9238957b0774</b></p><a name="7e6007ea-dd75-4f6f-bebe-9238957b0774"> </a><a name="hc7e6007ea-dd75-4f6f-bebe-9238957b0774"> </a><a name="7e6007ea-dd75-4f6f-bebe-9238957b0774-da-DK"> </a><p><b>identifier</b>: urn:uuid:b2090f8b-499e-46dc-ac78-43468e07ebc7</p><p><b>status</b>: Unknown</p><p><b>category</b>: <span title="Codes:{http://medcomfhir.dk/ig/terminology/CodeSystem/medcom-careCommunication-categoryCodes examination-results}">Examination Results</span></p><p><b>subject</b>: <a href="Patient-d4ac37e3-864b-4286-84c6-5ecdf4b550c1.html">Bruno Test Elmer (official) (no stated gender), DoB Unknown ( urn:oid:1.2.208.176.1.2#2509479989)</a></p><p><b>topic</b>: <span title="Codes:">Resultater fra hjemmesygeplejen</span></p><blockquote><p><b>payload</b></p><p><b>DateTimeExtension</b>: 2024-09-10 15:20:00+0100</p><p><b>IdentifierExtension</b>: urn:uuid:b478c855-cf10-4cc6-b773-368c7c9eb60e</p><p><b>PractitionerExtension</b>: <a href="PractitionerRole-cb36cff5-1b78-4d76-bc33-04bce8434bf0.html">PractitionerRole Lægesekretær</a></p><p><b>ContactExtension</b>: ph: 004523232323</p><p><b>content</b>: Til rette vedkommende. Hermed fremsendes undersøgelsesresultater fra seneste besøg af hjemmesygeplejen..... Hilsen Michael, sygeplejerske.</p></blockquote></div>
        </text>
        <identifier>
          <value value="urn:uuid:b2090f8b-499e-46dc-ac78-43468e07ebc7"/>
        </identifier>
        <status value="unknown"/>
        <category>
          <coding>
            <system value="http://medcomfhir.dk/ig/terminology/CodeSystem/medcom-careCommunication-categoryCodes"/>
            <code value="examination-results"/>
          </coding>
        </category>
        <subject>
          <reference value="Patient/d4ac37e3-864b-4286-84c6-5ecdf4b550c1"/>
        </subject>
        <topic>
          <text value="Resultater fra hjemmesygeplejen"/>
        </topic>
        <payload>
          <extension url="http://medcomfhir.dk/ig/core/StructureDefinition/medcom-core-datetime-extension">
            <valueDateTime value="2024-09-10T15:20:00+01:00"/>
          </extension>
          <extension url="http://medcomfhir.dk/ig/core/StructureDefinition/medcom-core-identifier-extension">
            <valueIdentifier>
              <value value="urn:uuid:b478c855-cf10-4cc6-b773-368c7c9eb60e"/>
              <assigner>
                <reference value="Organization/528f8b50-107d-44ad-a5e9-89b7891aedb1"/>
              </assigner>
            </valueIdentifier>
          </extension>
          <extension url="http://medcomfhir.dk/ig/core/StructureDefinition/medcom-core-practitioner-extension">
            <valueReference>
              <reference value="PractitionerRole/cb36cff5-1b78-4d76-bc33-04bce8434bf0"/>
            </valueReference>
          </extension>
          <extension url="http://medcomfhir.dk/ig/core/StructureDefinition/medcom-core-contact-extension">
            <valueContactPoint>
              <system value="phone"/>
              <value value="004523232323"/>
            </valueContactPoint>
          </extension>
          <contentString value="Til rette vedkommende. Hermed fremsendes undersøgelsesresultater fra seneste besøg af hjemmesygeplejen..... Hilsen Michael, sygeplejerske."/>
        </payload>
      </Communication>
    </resource>
  </entry>
  <entry>
    <fullUrl value="https://medcomfhir.dk/ig/carecommunication/PractitionerRole/cb36cff5-1b78-4d76-bc33-04bce8434bf0"/>
    <resource>
      <PractitionerRole>
        <id value="cb36cff5-1b78-4d76-bc33-04bce8434bf0"/>
        <meta>
          <profile value="http://medcomfhir.dk/ig/core/StructureDefinition/medcom-core-practitionerrole"/>
        </meta>
        <text>
          <status value="generated"/><div xmlns="http://www.w3.org/1999/xhtml"><a name="PractitionerRole_cb36cff5-1b78-4d76-bc33-04bce8434bf0"> </a><p class="res-header-id"><b>Generated Narrative: PractitionerRole cb36cff5-1b78-4d76-bc33-04bce8434bf0</b></p><a name="cb36cff5-1b78-4d76-bc33-04bce8434bf0"> </a><a name="hccb36cff5-1b78-4d76-bc33-04bce8434bf0"> </a><a name="cb36cff5-1b78-4d76-bc33-04bce8434bf0-da-DK"> </a><p><b>practitioner</b>: <a href="Practitioner-29e0b694-2d3b-4cb2-9fce-0e89860ffa8d.html">Practitioner Emma Waters </a></p><p><b>code</b>: <span title="Codes:{http://medcomfhir.dk/ig/terminology/CodeSystem/medcom-core-PractitionerRolesSKSadministrativ laegesekretaer}">Lægesekretær</span></p></div>
        </text>
        <practitioner>
          <reference value="Practitioner/29e0b694-2d3b-4cb2-9fce-0e89860ffa8d"/>
        </practitioner>
        <code>
          <coding>
            <system value="http://medcomfhir.dk/ig/terminology/CodeSystem/medcom-core-PractitionerRolesSKSadministrativ"/>
            <code value="laegesekretaer"/>
          </coding>
        </code>
      </PractitionerRole>
    </resource>
  </entry>
  <entry>
    <fullUrl value="https://medcomfhir.dk/ig/carecommunication/Practitioner/29e0b694-2d3b-4cb2-9fce-0e89860ffa8d"/>
    <resource>
      <Practitioner>
        <id value="29e0b694-2d3b-4cb2-9fce-0e89860ffa8d"/>
        <meta>
          <profile value="http://medcomfhir.dk/ig/core/StructureDefinition/medcom-core-practitioner"/>
        </meta>
        <text>
          <status value="generated"/><div xmlns="http://www.w3.org/1999/xhtml"><a name="Practitioner_29e0b694-2d3b-4cb2-9fce-0e89860ffa8d"> </a><p class="res-header-id"><b>Generated Narrative: Practitioner 29e0b694-2d3b-4cb2-9fce-0e89860ffa8d</b></p><a name="29e0b694-2d3b-4cb2-9fce-0e89860ffa8d"> </a><a name="hc29e0b694-2d3b-4cb2-9fce-0e89860ffa8d"> </a><a name="29e0b694-2d3b-4cb2-9fce-0e89860ffa8d-da-DK"> </a><p><b>name</b>: Emma Waters </p></div>
        </text>
        <name>
          <family value="Waters"/>
          <given value="Emma"/>
        </name>
      </Practitioner>
    </resource>
  </entry>
  <entry>
    <fullUrl value="https://medcomfhir.dk/ig/carecommunication/Organization/528f8b50-107d-44ad-a5e9-89b7891aedb1"/>
    <resource>
      <Organization>
        <id value="528f8b50-107d-44ad-a5e9-89b7891aedb1"/>
        <meta>
          <profile value="http://medcomfhir.dk/ig/messaging/StructureDefinition/medcom-messaging-organization"/>
        </meta>
        <text>
          <status value="generated"/><div xmlns="http://www.w3.org/1999/xhtml"><a name="Organization_528f8b50-107d-44ad-a5e9-89b7891aedb1"> </a><p class="res-header-id"><b>Generated Narrative: Organization 528f8b50-107d-44ad-a5e9-89b7891aedb1</b></p><a name="528f8b50-107d-44ad-a5e9-89b7891aedb1"> </a><a name="hc528f8b50-107d-44ad-a5e9-89b7891aedb1"> </a><a name="528f8b50-107d-44ad-a5e9-89b7891aedb1-da-DK"> </a><p><b>identifier</b>: <code>https://www.gs1.org/gln</code>/5790000121786, <code>urn:oid:1.2.208.176.1.1</code>/328081000016004</p><p><b>name</b>: Hjemmesygeplejen, Aalborg kommune</p></div>
        </text>
        <identifier>
          <system value="https://www.gs1.org/gln"/>
          <value value="5790000121786"/>
        </identifier>
        <identifier>
          <system value="urn:oid:1.2.208.176.1.1"/>
          <value value="328081000016004"/>
        </identifier>
        <name value="Hjemmesygeplejen, Aalborg kommune"/>
      </Organization>
    </resource>
  </entry>
  <entry>
    <fullUrl value="https://medcomfhir.dk/ig/carecommunication/Organization/ec80691c-8d77-4424-9b6f-169560d602ad"/>
    <resource>
      <Organization>
        <id value="ec80691c-8d77-4424-9b6f-169560d602ad"/>
        <meta>
          <profile value="http://medcomfhir.dk/ig/messaging/StructureDefinition/medcom-messaging-organization"/>
        </meta>
        <text>
          <status value="generated"/><div xmlns="http://www.w3.org/1999/xhtml"><a name="Organization_ec80691c-8d77-4424-9b6f-169560d602ad"> </a><p class="res-header-id"><b>Generated Narrative: Organization ec80691c-8d77-4424-9b6f-169560d602ad</b></p><a name="ec80691c-8d77-4424-9b6f-169560d602ad"> </a><a name="hcec80691c-8d77-4424-9b6f-169560d602ad"> </a><a name="ec80691c-8d77-4424-9b6f-169560d602ad-da-DK"> </a><p><b>identifier</b>: <code>https://www.gs1.org/gln</code>/5790002626814, <code>urn:oid:1.2.208.176.1.1</code>/1339531000016004</p><p><b>name</b>: Lægeklinik Ølgod</p></div>
        </text>
        <identifier>
          <system value="https://www.gs1.org/gln"/>
          <value value="5790002626814"/>
        </identifier>
        <identifier>
          <system value="urn:oid:1.2.208.176.1.1"/>
          <value value="1339531000016004"/>
        </identifier>
        <name value="Lægeklinik Ølgod"/>
      </Organization>
    </resource>
  </entry>
  <entry>
    <fullUrl value="https://medcomfhir.dk/ig/carecommunication/Provenance/93b0a981-986a-43ac-aecb-961d8a618d83"/>
    <resource>
      <Provenance>
        <id value="93b0a981-986a-43ac-aecb-961d8a618d83"/>
        <meta>
          <profile value="http://medcomfhir.dk/ig/carecommunication/StructureDefinition/medcom-careCommunication-provenance"/>
        </meta>
        <text>
          <status value="generated"/><div xmlns="http://www.w3.org/1999/xhtml"><a name="Provenance_93b0a981-986a-43ac-aecb-961d8a618d83"> </a><p class="res-header-id"><b>Generated Narrative: Provenance 93b0a981-986a-43ac-aecb-961d8a618d83</b></p><a name="93b0a981-986a-43ac-aecb-961d8a618d83"> </a><a name="hc93b0a981-986a-43ac-aecb-961d8a618d83"> </a><a name="93b0a981-986a-43ac-aecb-961d8a618d83-da-DK"> </a><p>Provenance for <a href="MessageHeader-3eadd00d-011b-4e2f-8f30-6658a6ee89e0.html">MessageHeader: event[x] = Care Communication Message (MedComMessagingEventCodes#care-communication-message); definition = http://medcomfhir.dk/ig/carecommunication/medcom-careCommunication-message-definition|4.0.0</a></p><p>Summary</p><table class="grid"><tr><td>Occurrence</td><td>2024-09-10 15:20:00+0100</td></tr><tr><td>Recorded</td><td>2024-09-10 15:20:00+0100</td></tr><tr><td>Activity</td><td><span title="Codes:{http://medcomfhir.dk/ig/terminology/CodeSystem/medcom-messaging-activityCodes new-message}">A new message has been sent</span></td></tr></table><p><b>Agents</b></p><table class="grid"><tr><td><b>who</b></td></tr><tr><td><a href="Organization-528f8b50-107d-44ad-a5e9-89b7891aedb1.html">Organization Hjemmesygeplejen, Aalborg kommune</a></td></tr></table></div>
        </text>
        <target>
          <reference value="MessageHeader/3eadd00d-011b-4e2f-8f30-6658a6ee89e0"/>
        </target>
        <occurredDateTime value="2024-09-10T15:20:00+01:00"/>
        <recorded value="2024-09-10T15:20:00+01:00"/>
        <activity>
          <coding>
            <system value="http://medcomfhir.dk/ig/terminology/CodeSystem/medcom-messaging-activityCodes"/>
            <code value="new-message"/>
          </coding>
        </activity>
        <agent>
          <who>
            <reference value="Organization/528f8b50-107d-44ad-a5e9-89b7891aedb1"/>
          </who>
        </agent>
        <entity>
          <role value="source"/>
          <what>
            <identifier>
              <value value="urn:uuid:6a4b69ee-636c-4fe3-a250-51abec6a7f4d"/>
            </identifier>
          </what>
        </entity>
      </Provenance>
    </resource>
  </entry>
</Bundle>