<?xml version="1.0" encoding="UTF-8"?>

<Bundle xmlns="http://hl7.org/fhir">
  <id value="3.4.1-TemporaryCPRAndNoComments"/>
  <meta>
    <profile value="http://medcomfhir.dk/ig/homecareobservation/StructureDefinition/medcom-homecareobservation-message"/>
  </meta>
  <type value="message"/>
  <timestamp value="2025-08-08T15:00:00+02:00"/>
  <entry>
    <fullUrl value="http://medcomfhir.dk/ig/homecareobservation/MessageHeader/3.4.1-MessageHeader"/>
    <resource>
      <MessageHeader>
        <id value="3.4.1-MessageHeader"/>
        <meta>
          <profile value="http://medcomfhir.dk/ig/homecareobservation/StructureDefinition/medcom-homecareobservation-messageheader"/>
        </meta>
        <text>
          <status value="generated"/><div xmlns="http://www.w3.org/1999/xhtml"><a name="MessageHeader_3.4.1-MessageHeader"> </a><p class="res-header-id"><b>Generated Narrative: MessageHeader 3.4.1-MessageHeader</b></p><a name="3.4.1-MessageHeader"> </a><a name="hc3.4.1-MessageHeader"> </a><div style="display: inline-block; background-color: #d9e0e7; padding: 6px; margin: 4px; border: 1px solid #8da1b4; border-radius: 5px; line-height: 60%"><p style="margin-bottom: 0px"/><p style="margin-bottom: 0px">Profile: <a href="http://medcomfhir.dk/ig/homecareobservation/1.1.0-trial-use/StructureDefinition-medcom-homecareobservation-messageheader.html">MedComHomeCareObservationMessageHeader</a></p></div><p><b>event</b>: <a href="http://medcomfhir.dk/ig/terminology/2.0.0-draft/CodeSystem-medcom-messaging-eventCodes.html#medcom-messaging-eventCodes-homecareobservation-message">MedComMessagingEventCodes homecareobservation-message</a>: HomeCare Observation Message</p><h3>Destinations</h3><table class="grid"><tr><td style="display: none">-</td><td><b>Extension</b></td><td><b>Endpoint</b></td><td><b>Receiver</b></td></tr><tr><td style="display: none">*</td><td/><td><a href="https://sor2.sum.dsdn.dk/#id=73091000016008">https://sor2.sum.dsdn.dk/#id=73091000016008</a></td><td><a href="Bundle-3.4.1-TemporaryCPRAndNoComments.html#Organization_AgerskovsLaegePraksisRequesterOrg">Bundle: type = message; timestamp = 2025-08-08 15:00:00+0200</a></td></tr></table><p><b>sender</b>: <a href="Bundle-3.4.1-TemporaryCPRAndNoComments.html#Organization_SkovlyAktivitetstilbudProducerOrg">Bundle: type = message; timestamp = 2025-08-08 15:00:00+0200</a></p><h3>Sources</h3><table class="grid"><tr><td style="display: none">-</td><td><b>Endpoint</b></td></tr><tr><td style="display: none">*</td><td><a href="https://sor2.sum.dsdn.dk/#id=1267041000016006">https://sor2.sum.dsdn.dk/#id=1267041000016006</a></td></tr></table><p><b>focus</b>: <a href="Bundle-3.4.1-TemporaryCPRAndNoComments.html#DiagnosticReport_3.4.1-DiagnosticReport">Bundle: type = message; timestamp = 2025-08-08 15:00:00+0200</a></p><p><b>definition</b>: <a href="http://medcomfhir.dk/ig/messagedefinitions/1.0.0-trial-use/MessageDefinition-MedComHomeCareObservationMessageDefinition1.1.html">http://medcomfhir.dk/ig/messagedefinitions/MessageDefinition/MedComHomeCareObservationMessageDefinition1.1</a></p></div>
        </text>
        <eventCoding>
          <system value="http://medcomfhir.dk/ig/terminology/CodeSystem/medcom-messaging-eventCodes"/>
          <code value="homecareobservation-message"/>
        </eventCoding>
        <destination>
          <extension url="http://medcomfhir.dk/ig/messaging/StructureDefinition/medcom-messaging-destinationUseExtension">
            <valueCoding>
              <system value="http://medcomfhir.dk/ig/terminology/CodeSystem/medcom-messaging-destinationUse"/>
              <code value="primary"/>
            </valueCoding>
          </extension>
          <endpoint value="https://sor2.sum.dsdn.dk/#id=73091000016008"/>
          <receiver>
            <reference value="Organization/AgerskovsLaegePraksisRequesterOrg"/>
          </receiver>
        </destination>
        <sender>
          <reference value="Organization/SkovlyAktivitetstilbudProducerOrg"/>
        </sender>
        <source>
          <endpoint value="https://sor2.sum.dsdn.dk/#id=1267041000016006"/>
        </source>
        <focus>
          <reference value="DiagnosticReport/3.4.1-DiagnosticReport"/>
        </focus>
        <definition value="http://medcomfhir.dk/ig/messagedefinitions/MessageDefinition/MedComHomeCareObservationMessageDefinition1.1"/>
      </MessageHeader>
    </resource>
  </entry>
  <entry>
    <fullUrl value="http://medcomfhir.dk/ig/homecareobservation/Patient/PeterHansenECPRPatient"/>
    <resource>
      <Patient>
        <id value="PeterHansenECPRPatient"/>
        <meta>
          <profile value="http://medcomfhir.dk/ig/core/StructureDefinition/medcom-core-patient"/>
        </meta>
        <text>
          <status value="generated"/><div xmlns="http://www.w3.org/1999/xhtml"><a name="Patient_PeterHansenECPRPatient"> </a><p class="res-header-id"><b>Generated Narrative: Patient PeterHansenECPRPatient</b></p><a name="PeterHansenECPRPatient"> </a><a name="hcPeterHansenECPRPatient"> </a><div style="display: inline-block; background-color: #d9e0e7; padding: 6px; margin: 4px; border: 1px solid #8da1b4; border-radius: 5px; line-height: 60%"><p style="margin-bottom: 0px"/><p style="margin-bottom: 0px">Profile: <a href="http://medcomfhir.dk/ig/core/2.4.0/StructureDefinition-medcom-core-patient.html">MedComCorePatient</a></p></div><p style="border: 1px #661aff solid; background-color: #e6e6ff; padding: 10px;">Peter Hansen (official) (no stated gender), DoB Unknown ( urn:oid:1.2.208.176.1.6.1.1#0703921VJ5)</p><hr/></div>
        </text>
        <identifier>
          <system value="urn:oid:1.2.208.176.1.6.1.1"/>
          <value value="0703921VJ5"/>
        </identifier>
        <name>
          <use value="official"/>
          <family value="Hansen"/>
          <given value="Peter"/>
        </name>
      </Patient>
    </resource>
  </entry>
  <entry>
    <fullUrl value="http://medcomfhir.dk/ig/homecareobservation/DiagnosticReport/3.4.1-DiagnosticReport"/>
    <resource>
      <DiagnosticReport>
        <id value="3.4.1-DiagnosticReport"/>
        <meta>
          <profile value="http://medcomfhir.dk/ig/homecareobservation/StructureDefinition/medcom-homecareobservation-diagnosticreport"/>
        </meta>
        <text>
          <status value="generated"/><div xmlns="http://www.w3.org/1999/xhtml"><a name="DiagnosticReport_3.4.1-DiagnosticReport"> </a><p class="res-header-id"><b>Generated Narrative: DiagnosticReport 3.4.1-DiagnosticReport</b></p><a name="3.4.1-DiagnosticReport"> </a><a name="hc3.4.1-DiagnosticReport"> </a><div style="display: inline-block; background-color: #d9e0e7; padding: 6px; margin: 4px; border: 1px solid #8da1b4; border-radius: 5px; line-height: 60%"><p style="margin-bottom: 0px"/><p style="margin-bottom: 0px">Profile: <a href="http://medcomfhir.dk/ig/homecareobservation/1.1.0-trial-use/StructureDefinition-medcom-homecareobservation-diagnosticreport.html">MedComHomeCareObservationDiagnosticReport</a></p></div><h2><span title="Codes:{http://medcomfhir.dk/ig/terminology/CodeSystem/MedComDiagnosticReportCodes HomeCareReport}">HomeCareDiagnosticReport</span> </h2><table class="grid"><tr><td>Subject</td><td>Not done yet</td></tr><tr><td>Reported</td><td>2025-08-07 15:00:00+0200</td></tr><tr><td>Performers</td><td> <a href="Bundle-3.4.1-TemporaryCPRAndNoComments.html#Organization_SkovlyAktivitetstilbudProducerOrg">Bundle: type = message; timestamp = 2025-08-08 15:00:00+0200</a> <a href="Bundle-3.4.1-TemporaryCPRAndNoComments.html#PractitionerRole_JohnAcuteNursePractitionerRole">Bundle: type = message; timestamp = 2025-08-08 15:00:00+0200</a></td></tr></table><p><b>Report Details</b></p><table class="grid"><tr><td><b>Code</b></td><td><b>Value</b></td></tr><tr><td/><td/></tr></table></div>
        </text>
        <status value="final"/>
        <code>
          <coding>
            <system value="http://medcomfhir.dk/ig/terminology/CodeSystem/MedComDiagnosticReportCodes"/>
            <code value="HomeCareReport"/>
          </coding>
        </code>
        <subject>
          <reference value="Patient/PeterHansenECPRPatient"/>
        </subject>
        <issued value="2025-08-07T15:00:00+02:00"/>
        <performer>
          <reference value="Organization/SkovlyAktivitetstilbudProducerOrg"/>
        </performer>
        <performer>
          <reference value="PractitionerRole/JohnAcuteNursePractitionerRole"/>
        </performer>
        <result>
          <reference value="Observation/GlucoseObservationOnPeterNoComment"/>
        </result>
      </DiagnosticReport>
    </resource>
  </entry>
  <entry>
    <fullUrl value="http://medcomfhir.dk/ig/homecareobservation/PractitionerRole/JohnAcuteNursePractitionerRole"/>
    <resource>
      <PractitionerRole>
        <id value="JohnAcuteNursePractitionerRole"/>
        <meta>
          <profile value="http://medcomfhir.dk/ig/core/StructureDefinition/medcom-core-practitionerrole"/>
        </meta>
        <text>
          <status value="generated"/><div xmlns="http://www.w3.org/1999/xhtml"><a name="PractitionerRole_JohnAcuteNursePractitionerRole"> </a><p class="res-header-id"><b>Generated Narrative: PractitionerRole JohnAcuteNursePractitionerRole</b></p><a name="JohnAcuteNursePractitionerRole"> </a><a name="hcJohnAcuteNursePractitionerRole"> </a><div style="display: inline-block; background-color: #d9e0e7; padding: 6px; margin: 4px; border: 1px solid #8da1b4; border-radius: 5px; line-height: 60%"><p style="margin-bottom: 0px"/><p style="margin-bottom: 0px">Profile: <a href="http://medcomfhir.dk/ig/core/2.4.0/StructureDefinition-medcom-core-practitionerrole.html">MedComCorePractitionerRole</a></p></div><p><b>practitioner</b>: <a href="Bundle-3.4.1-TemporaryCPRAndNoComments.html#Practitioner_JohnAcuteNurse">Bundle: type = message; timestamp = 2025-08-08 15:00:00+0200</a></p><p><b>code</b>: <span title="Codes:{http://medcomfhir.dk/ig/terminology/CodeSystem/medcom-core-PractitionerRolesSKSadministrativ sygeplejerske}">Sygeplejerske</span></p></div>
        </text>
        <practitioner>
          <reference value="Practitioner/JohnAcuteNurse"/>
        </practitioner>
        <code>
          <coding>
            <system value="http://medcomfhir.dk/ig/terminology/CodeSystem/medcom-core-PractitionerRolesSKSadministrativ"/>
            <code value="sygeplejerske"/>
          </coding>
        </code>
      </PractitionerRole>
    </resource>
  </entry>
  <entry>
    <fullUrl value="http://medcomfhir.dk/ig/homecareobservation/Practitioner/JohnAcuteNurse"/>
    <resource>
      <Practitioner>
        <id value="JohnAcuteNurse"/>
        <meta>
          <profile value="http://medcomfhir.dk/ig/core/StructureDefinition/medcom-core-practitioner"/>
        </meta>
        <text>
          <status value="generated"/><div xmlns="http://www.w3.org/1999/xhtml"><a name="Practitioner_JohnAcuteNurse"> </a><p class="res-header-id"><b>Generated Narrative: Practitioner JohnAcuteNurse</b></p><a name="JohnAcuteNurse"> </a><a name="hcJohnAcuteNurse"> </a><div style="display: inline-block; background-color: #d9e0e7; padding: 6px; margin: 4px; border: 1px solid #8da1b4; border-radius: 5px; line-height: 60%"><p style="margin-bottom: 0px"/><p style="margin-bottom: 0px">Profile: <a href="http://medcomfhir.dk/ig/core/2.4.0/StructureDefinition-medcom-core-practitioner.html">MedComCorePractitioner</a></p></div><p><b>name</b>: John </p><p><b>telecom</b>: <a href="tel:+4505577668">+45 05577668</a></p></div>
        </text>
        <name>
          <given value="John"/>
        </name>
        <telecom>
          <system value="phone"/>
          <value value="+45 05577668"/>
        </telecom>
      </Practitioner>
    </resource>
  </entry>
  <entry>
    <fullUrl value="http://medcomfhir.dk/ig/homecareobservation/Organization/AgerskovsLaegePraksisRequesterOrg"/>
    <resource>
      <Organization>
        <id value="AgerskovsLaegePraksisRequesterOrg"/>
        <meta>
          <profile value="http://medcomfhir.dk/ig/messaging/StructureDefinition/medcom-requesterorganization"/>
        </meta>
        <text>
          <status value="generated"/><div xmlns="http://www.w3.org/1999/xhtml"><a name="Organization_AgerskovsLaegePraksisRequesterOrg"> </a><p class="res-header-id"><b>Generated Narrative: Organization AgerskovsLaegePraksisRequesterOrg</b></p><a name="AgerskovsLaegePraksisRequesterOrg"> </a><a name="hcAgerskovsLaegePraksisRequesterOrg"> </a><div style="display: inline-block; background-color: #d9e0e7; padding: 6px; margin: 4px; border: 1px solid #8da1b4; border-radius: 5px; line-height: 60%"><p style="margin-bottom: 0px"/><p style="margin-bottom: 0px">Profile: <a href="http://medcomfhir.dk/ig/messaging/3.0.0/StructureDefinition-medcom-requesterorganization.html">MedComMessagingRequesterOrganization</a></p></div><p><b>identifier</b>: <code>https://www.gs1.org/gln</code>/5790000147465, <code>urn:oid:1.2.208.176.1.1</code>/73091000016008, <code>urn:oid:1.2.208.176.1.4</code>/045861</p><p><b>name</b>: Agerskov lægepraksis</p><h3>Contacts</h3><table class="grid"><tr><td style="display: none">-</td><td><b>Name</b></td></tr><tr><td style="display: none">*</td><td>ALP </td></tr></table></div>
        </text>
        <identifier>
          <system value="https://www.gs1.org/gln"/>
          <value value="5790000147465"/>
        </identifier>
        <identifier>
          <system value="urn:oid:1.2.208.176.1.1"/>
          <value value="73091000016008"/>
        </identifier>
        <identifier>
          <system value="urn:oid:1.2.208.176.1.4"/>
          <value value="045861"/>
        </identifier>
        <name value="Agerskov lægepraksis"/>
        <contact>
          <name>
            <given value="ALP"/>
          </name>
        </contact>
      </Organization>
    </resource>
  </entry>
  <entry>
    <fullUrl value="http://medcomfhir.dk/ig/homecareobservation/Organization/SkovlyAktivitetstilbudProducerOrg"/>
    <resource>
      <Organization>
        <id value="SkovlyAktivitetstilbudProducerOrg"/>
        <meta>
          <profile value="http://medcomfhir.dk/ig/messaging/StructureDefinition/medcom-producer-organization"/>
        </meta>
        <text>
          <status value="generated"/><div xmlns="http://www.w3.org/1999/xhtml"><a name="Organization_SkovlyAktivitetstilbudProducerOrg"> </a><p class="res-header-id"><b>Generated Narrative: Organization SkovlyAktivitetstilbudProducerOrg</b></p><a name="SkovlyAktivitetstilbudProducerOrg"> </a><a name="hcSkovlyAktivitetstilbudProducerOrg"> </a><div style="display: inline-block; background-color: #d9e0e7; padding: 6px; margin: 4px; border: 1px solid #8da1b4; border-radius: 5px; line-height: 60%"><p style="margin-bottom: 0px"/><p style="margin-bottom: 0px">Profile: <a href="http://medcomfhir.dk/ig/messaging/3.0.0/StructureDefinition-medcom-producer-organization.html">MedComCoreProducerOrganization</a></p></div><p><b>identifier</b>: <code>https://www.gs1.org/gln</code>/5790002757778, <code>urn:oid:1.2.208.176.1.1</code>/1267041000016006, <code>http://medcomfhir.dk/ig/terminology/CodeSystem/MedComProducentID</code>/KAF</p><p><b>name</b>: Pleje og Rehabilitering</p></div>
        </text>
        <identifier>
          <system value="https://www.gs1.org/gln"/>
          <value value="5790002757778"/>
        </identifier>
        <identifier>
          <system value="urn:oid:1.2.208.176.1.1"/>
          <value value="1267041000016006"/>
        </identifier>
        <identifier>
          <system value="http://medcomfhir.dk/ig/terminology/CodeSystem/MedComProducentID"/>
          <value value="KAF"/>
        </identifier>
        <name value="Pleje og Rehabilitering"/>
      </Organization>
    </resource>
  </entry>
  <entry>
    <fullUrl value="http://medcomfhir.dk/ig/homecareobservation/Provenance/3.4.1-Provenance"/>
    <resource>
      <Provenance>
        <id value="3.4.1-Provenance"/>
        <meta>
          <profile value="http://medcomfhir.dk/ig/messaging/StructureDefinition/medcom-messaging-provenance"/>
        </meta>
        <text>
          <status value="generated"/><div xmlns="http://www.w3.org/1999/xhtml"><a name="Provenance_3.4.1-Provenance"> </a><p class="res-header-id"><b>Generated Narrative: Provenance 3.4.1-Provenance</b></p><a name="3.4.1-Provenance"> </a><a name="hc3.4.1-Provenance"> </a><div style="display: inline-block; background-color: #d9e0e7; padding: 6px; margin: 4px; border: 1px solid #8da1b4; border-radius: 5px; line-height: 60%"><p style="margin-bottom: 0px"/><p style="margin-bottom: 0px">Profile: <a href="http://medcomfhir.dk/ig/messaging/3.0.0/StructureDefinition-medcom-messaging-provenance.html">MedComMessagingProvenance</a></p></div><p>Provenance for <a href="Bundle-3.4.1-TemporaryCPRAndNoComments.html#MessageHeader_3.4.1-MessageHeader">Bundle: type = message; timestamp = 2025-08-08 15:00:00+0200</a></p><p>Summary</p><table class="grid"><tr><td>Occurrence</td><td>2025-08-07 15:00:00+0200</td></tr><tr><td>Recorded</td><td>2025-08-07 15:00:00+0200</td></tr><tr><td>Activity</td><td><span title="Codes:{http://medcomfhir.dk/ig/terminology/CodeSystem/medcom-messaging-activityCodes new-message}">A new message has been sent</span></td></tr></table><p><b>Agents</b></p><table class="grid"><tr><td><b>who</b></td></tr><tr><td><a href="Bundle-3.4.1-TemporaryCPRAndNoComments.html#Organization_SkovlyAktivitetstilbudProducerOrg">Bundle: type = message; timestamp = 2025-08-08 15:00:00+0200</a></td></tr></table></div>
        </text>
        <target>
          <reference value="MessageHeader/3.4.1-MessageHeader"/>
        </target>
        <occurredDateTime value="2025-08-07T15:00:00+02:00"/>
        <recorded value="2025-08-07T15:00:00+02:00"/>
        <activity>
          <coding>
            <system value="http://medcomfhir.dk/ig/terminology/CodeSystem/medcom-messaging-activityCodes"/>
            <code value="new-message"/>
          </coding>
        </activity>
        <agent>
          <who>
            <reference value="Organization/SkovlyAktivitetstilbudProducerOrg"/>
          </who>
        </agent>
      </Provenance>
    </resource>
  </entry>
  <entry>
    <fullUrl value="http://medcomfhir.dk/ig/homecareobservation/Observation/GlucoseObservationOnPeterNoComment"/>
    <resource>
      <Observation>
        <id value="GlucoseObservationOnPeterNoComment"/>
        <meta>
          <profile value="http://medcomfhir.dk/ig/homecareobservation/StructureDefinition/medcom-homecare-observation"/>
        </meta>
        <text>
          <status value="generated"/><div xmlns="http://www.w3.org/1999/xhtml"><a name="Observation_GlucoseObservationOnPeterNoComment"> </a><p class="res-header-id"><b>Generated Narrative: Observation GlucoseObservationOnPeterNoComment</b></p><a name="GlucoseObservationOnPeterNoComment"> </a><a name="hcGlucoseObservationOnPeterNoComment"> </a><div style="display: inline-block; background-color: #d9e0e7; padding: 6px; margin: 4px; border: 1px solid #8da1b4; border-radius: 5px; line-height: 60%"><p style="margin-bottom: 0px"/><p style="margin-bottom: 0px">Profile: <a href="http://medcomfhir.dk/ig/homecareobservation/1.1.0-trial-use/StructureDefinition-medcom-homecare-observation.html">MedComHomeCareObservation</a></p></div><p><b>status</b>: Final</p><p><b>code</b>: <span title="Codes:{urn:oid:1.2.208.176.2.1 NPU22089}">P(kB)—Glucose; stofk. = ? mmol/L</span></p><p><b>subject</b>: <a href="Bundle-3.4.1-TemporaryCPRAndNoComments.html#Patient_PeterHansenECPRPatient">Bundle: type = message; timestamp = 2025-08-08 15:00:00+0200</a></p><p><b>effective</b>: 2025-08-07 14:47:23+0200</p><p><b>value</b>: 5.1 mmol/L</p><p><b>interpretation</b>: <span title="Codes:{http://medcomfhir.dk/ig/terminology/CodeSystem/medcom-core-interpretation-codes NI}">Not Interpreted</span></p></div>
        </text>
        <status value="final"/>
        <code>
          <coding>
            <system value="urn:oid:1.2.208.176.2.1"/>
            <code value="NPU22089"/>
            <display value="P(kB)—Glucose; stofk. = ? mmol/L"/>
          </coding>
        </code>
        <subject>
          <reference value="Patient/PeterHansenECPRPatient"/>
        </subject>
        <effectiveDateTime value="2025-08-07T14:47:23+02:00"/>
        <valueQuantity>
          <value value="5.1"/>
          <unit value="mmol/L"/>
        </valueQuantity>
        <interpretation>
          <coding>
            <system value="http://medcomfhir.dk/ig/terminology/CodeSystem/medcom-core-interpretation-codes"/>
            <code value="NI"/>
            <display value="Not Interpreted"/>
          </coding>
        </interpretation>
      </Observation>
    </resource>
  </entry>
</Bundle>