<?xml version="1.0" encoding="UTF-8"?>

<Bundle xmlns="http://hl7.org/fhir">
  <id value="a4630688-dc6b-4484-9ef7-b9a08148c407"/>
  <meta>
    <profile value="http://medcomfhir.dk/ig/conditionlist/StructureDefinition/medcom-conditionlist-bundle"/>
  </meta>
  <identifier>
    <system value="urn:ietf:rfc:3986"/>
    <value value="urn:uuid:229b156c-5d36-417a-9d71-ea5cb725ab40"/>
  </identifier>
  <type value="document"/>
  <timestamp value="2024-07-10T12:50:00+01:00"/>
  <entry>
    <fullUrl value="http://medcomfhir.dk/ig/conditionlist/Composition/2590fc0b-d6fb-4d7f-86fb-60b7474d59a5"/>
    <resource>
      <Composition>
        <id value="2590fc0b-d6fb-4d7f-86fb-60b7474d59a5"/>
        <meta>
          <profile value="http://medcomfhir.dk/ig/conditionlist/StructureDefinition/medcom-conditionlist-composition"/>
        </meta>
        <language value="da"/>
        <text>
          <status value="generated"/><div xmlns="http://www.w3.org/1999/xhtml" xml:lang="da" lang="da"><a name="Composition_2590fc0b-d6fb-4d7f-86fb-60b7474d59a5"> </a><p class="res-header-id"><b>Generated Narrative: Composition 2590fc0b-d6fb-4d7f-86fb-60b7474d59a5</b></p><a name="2590fc0b-d6fb-4d7f-86fb-60b7474d59a5"> </a><a name="hc2590fc0b-d6fb-4d7f-86fb-60b7474d59a5"> </a><a name="2590fc0b-d6fb-4d7f-86fb-60b7474d59a5-en-US"> </a><div style="display: inline-block; background-color: #d9e0e7; padding: 6px; margin: 4px; border: 1px solid #8da1b4; border-radius: 5px; line-height: 60%"><p style="margin-bottom: 0px">Language: da</p><p style="margin-bottom: 0px">Profile: <a href="StructureDefinition-medcom-conditionlist-composition.html">MedComConditionListComposition</a></p></div><p><b>status</b>: Final</p><p><b>type</b>: <span title="Codes:{http://loinc.org 11450-4}">Problem list - Reported</span></p><p><b>date</b>: 2024-07-10 12:50:00+0100</p><p><b>author</b>: <a href="Organization-465b576f-9620-4394-adc7-ff00a95971d1.html">Organization MedCom Testcenter</a></p><p><b>title</b>: Diagnoseoversigt for 2509479989</p><p><b>confidentiality</b>: normal</p></div>
        </text>
        <status value="final"/>
        <type>
          <coding>
            <system value="http://loinc.org"/>
            <code value="11450-4"/>
            <display value="Problem list - Reported"/>
          </coding>
        </type>
        <subject>
          <reference value="Patient/19bdc614-503b-481d-ae65-4040daf7060d"/>
        </subject>
        <date value="2024-07-10T12:50:00+01:00"/>
        <author>
          <reference value="Organization/465b576f-9620-4394-adc7-ff00a95971d1"/>
        </author>
        <title value="Diagnoseoversigt for 2509479989"/>
        <confidentiality value="N"/>
        <section>
          <text>
            <status value="generated"/><div xmlns="http://www.w3.org/1999/xhtml"><p class="res-header-id"><b>Generated Narrative: Condition 5af29fb2-f724-4918-94b2-cfeb18e263ac</b></p><a name="5af29fb2-f724-4918-94b2-cfeb18e263ac"></a><a name="hc5af29fb2-f724-4918-94b2-cfeb18e263ac"> </a><a name="5af29fb2-f724-4918-94b2-cfeb18e263ac-en-US"></a><p><b>category</b>: <span title="Codes:{http://snomed.info/sct 15240007}">Current</span></p><p><b>code</b>: <span title="Codes:">KOL</span></p><p><b>subject</b>: <a href="Patient-19bdc614-503b-481d-ae65-4040daf7060d.html">Knut Odvar Test Mosebryggersen (official) Male, DoB: 1982-02-15 ( urn:oid:1.2.208.176.1.2#1502829995)</a></p><p><b>onset</b>: 2019-11-25</p><p><b>recordedDate</b>: 2020-03-15</p></div>
          </text>
          <entry>
            <reference value="Condition/5af29fb2-f724-4918-94b2-cfeb18e263ac"/>
          </entry>
        </section>
      </Composition>
    </resource>
  </entry>
  <entry>
    <fullUrl value="http://medcomfhir.dk/ig/conditionlist/Patient/19bdc614-503b-481d-ae65-4040daf7060d"/>
    <resource>
      <Patient>
        <id value="19bdc614-503b-481d-ae65-4040daf7060d"/>
        <meta>
          <profile value="http://medcomfhir.dk/ig/document/StructureDefinition/medcom-document-patient"/>
        </meta>
        <text>
          <status value="generated"/><div xmlns="http://www.w3.org/1999/xhtml"><a name="Patient_19bdc614-503b-481d-ae65-4040daf7060d"> </a><p class="res-header-id"><b>Generated Narrative: Patient 19bdc614-503b-481d-ae65-4040daf7060d</b></p><a name="19bdc614-503b-481d-ae65-4040daf7060d"> </a><a name="hc19bdc614-503b-481d-ae65-4040daf7060d"> </a><a name="19bdc614-503b-481d-ae65-4040daf7060d-en-US"> </a><p style="border: 1px #661aff solid; background-color: #e6e6ff; padding: 10px;">Knut Odvar Test Mosebryggersen (official) Male, DoB: 1982-02-15 ( urn:oid:1.2.208.176.1.2#1502829995)</p><hr/></div>
        </text>
        <identifier>
          <system value="urn:oid:1.2.208.176.1.2"/>
          <value value="1502829995"/>
        </identifier>
        <name>
          <use value="official"/>
          <family value="Mosebryggersen"/>
          <given value="Knut"/>
          <given value="Odvar"/>
          <given value="Test"/>
        </name>
        <gender value="male"/>
        <birthDate value="1982-02-15"/>
      </Patient>
    </resource>
  </entry>
  <entry>
    <fullUrl value="http://medcomfhir.dk/ig/conditionlist/Organization/465b576f-9620-4394-adc7-ff00a95971d1"/>
    <resource>
      <Organization>
        <id value="465b576f-9620-4394-adc7-ff00a95971d1"/>
        <meta>
          <profile value="http://medcomfhir.dk/ig/conditionlist/StructureDefinition/medcom-conditionlist-organization"/>
        </meta>
        <text>
          <status value="generated"/><div xmlns="http://www.w3.org/1999/xhtml"><a name="Organization_465b576f-9620-4394-adc7-ff00a95971d1"> </a><p class="res-header-id"><b>Generated Narrative: Organization 465b576f-9620-4394-adc7-ff00a95971d1</b></p><a name="465b576f-9620-4394-adc7-ff00a95971d1"> </a><a name="hc465b576f-9620-4394-adc7-ff00a95971d1"> </a><a name="465b576f-9620-4394-adc7-ff00a95971d1-en-US"> </a><p><b>identifier</b>: <code>urn:oid:1.2.208.176.1.1</code>/325381000016008</p><p><b>name</b>: MedCom Testcenter</p></div>
        </text>
        <identifier>
          <system value="urn:oid:1.2.208.176.1.1"/>
          <value value="325381000016008"/>
        </identifier>
        <name value="MedCom Testcenter"/>
      </Organization>
    </resource>
  </entry>
  <entry>
    <fullUrl value="http://medcomfhir.dk/ig/conditionlist/Condition/5af29fb2-f724-4918-94b2-cfeb18e263ac"/>
    <resource>
      <Condition>
        <id value="5af29fb2-f724-4918-94b2-cfeb18e263ac"/>
        <meta>
          <profile value="http://medcomfhir.dk/ig/conditionlist/StructureDefinition/medcom-conditionlist-condition"/>
        </meta>
        <text>
          <status value="generated"/><div xmlns="http://www.w3.org/1999/xhtml"><a name="Condition_5af29fb2-f724-4918-94b2-cfeb18e263ac"> </a><p class="res-header-id"><b>Generated Narrative: Condition 5af29fb2-f724-4918-94b2-cfeb18e263ac</b></p><a name="5af29fb2-f724-4918-94b2-cfeb18e263ac"> </a><a name="hc5af29fb2-f724-4918-94b2-cfeb18e263ac"> </a><a name="5af29fb2-f724-4918-94b2-cfeb18e263ac-en-US"> </a><p><b>category</b>: <span title="Codes:{http://snomed.info/sct 15240007}">Current</span></p><p><b>code</b>: <span title="Codes:">KOL</span></p><p><b>subject</b>: <a href="Patient-19bdc614-503b-481d-ae65-4040daf7060d.html">Knut Odvar Test Mosebryggersen (official) Male, DoB: 1982-02-15 ( urn:oid:1.2.208.176.1.2#1502829995)</a></p><p><b>onset</b>: 2019-11-25</p><p><b>recordedDate</b>: 2020-03-15</p></div>
        </text>
        <category>
          <coding>
            <system value="http://snomed.info/sct"/>
            <code value="15240007"/>
          </coding>
        </category>
        <code>
          <text value="KOL"/>
        </code>
        <subject>
          <reference value="Patient/19bdc614-503b-481d-ae65-4040daf7060d"/>
        </subject>
        <onsetDateTime value="2019-11-25"/>
        <recordedDate value="2020-03-15"/>
      </Condition>
    </resource>
  </entry>
</Bundle>