{
  "resourceType" : "Bundle",
  "id" : "5248a961-331b-4f22-8593-75cdd8d7e36c",
  "meta" : {
    "profile" : ["http://medcomfhir.dk/ig/hospitalnotification/StructureDefinition/medcom-hospitalNotification-message"]
  },
  "type" : "message",
  "timestamp" : "2023-03-05T15:30:02+01:00",
  "entry" : [{
    "fullUrl" : "MessageHeader/f47254da-f170-46f0-b624-4778a9399006",
    "resource" : {
      "resourceType" : "MessageHeader",
      "id" : "f47254da-f170-46f0-b624-4778a9399006",
      "meta" : {
        "profile" : ["http://medcomfhir.dk/ig/hospitalnotification/StructureDefinition/medcom-hospitalNotification-messageHeader"]
      },
      "text" : {
        "status" : "generated",
        "div" : "<div xmlns=\"http://www.w3.org/1999/xhtml\"><p><b>Generated Narrative: MessageHeader</b><a name=\"f47254da-f170-46f0-b624-4778a9399006\"/></p><div style=\"display: inline-block; background-color: #d9e0e7; padding: 6px; margin: 4px; border: 1px solid #8da1b4; border-radius: 5px; line-height: 60%\"><p style=\"margin-bottom: 0px\">Resource MessageHeader \"f47254da-f170-46f0-b624-4778a9399006\"</p><p style=\"margin-bottom: 0px\">Profile: \n                                <a href=\"StructureDefinition-medcom-hospitalNotification-messageHeader.html\">MedComHospitalNotificationMessageHeader</a></p></div><p><b>event</b>: Hospital Notification Message (Details: http://medcomfhir.dk/ig/terminology/CodeSystem/medcom-messaging-eventCodes code hospital-notification-message = 'Hospital Notification Message', stated as 'null')\n                        </p><h3>Destinations</h3><table class=\"grid\"><tr><td>-</td><td><b>Extension</b></td><td><b>Endpoint</b></td><td><b>Receiver</b></td></tr><tr><td>*</td><td/><td><a href=\"https://sor2.sum.dsdn.dk/#id=953741000016009\">https://sor2.sum.dsdn.dk/#id=953741000016009</a></td><td><a href=\"#Organization_55ba5884-81ca-11ed-a1eb-0242ac120002\">See above (Organization/55ba5884-81ca-11ed-a1eb-0242ac120002)</a></td></tr></table><p><b>sender</b>: \n                            <a href=\"#Organization_o7056980-a8b2-42aa-8a0e-c1fc85d1f40d\">See above (Organization/o7056980-a8b2-42aa-8a0e-c1fc85d1f40d)</a></p><h3>Sources</h3><table class=\"grid\"><tr><td>-</td><td><b>Endpoint</b></td></tr><tr><td>*</td><td><a href=\"https://sor2.sum.dsdn.dk/#id=265161000016000\">https://sor2.sum.dsdn.dk/#id=265161000016000</a></td></tr></table><p><b>focus</b>: \n                            <a href=\"#Encounter_e07c4bd4-cfad-4c4d-9c4b-e4ba3424a65b\">See above (Encounter/e07c4bd4-cfad-4c4d-9c4b-e4ba3424a65b)</a></p></div>"
      },
      "eventCoding" : {
        "system" : "http://medcomfhir.dk/ig/terminology/CodeSystem/medcom-messaging-eventCodes",
        "code" : "hospital-notification-message"
      },
      "destination" : [{
        "extension" : [{
          "url" : "http://medcomfhir.dk/ig/messaging/StructureDefinition/medcom-messaging-destinationUseExtension",
          "valueCoding" : {
            "system" : "http://medcomfhir.dk/ig/terminology/CodeSystem/medcom-messaging-destinationUse",
            "code" : "primary"
          }
        }],
        "endpoint" : "https://sor2.sum.dsdn.dk/#id=953741000016009",
        "receiver" : {
          "reference" : "Organization/55ba5884-81ca-11ed-a1eb-0242ac120002"
        }
      }],
      "sender" : {
        "reference" : "Organization/o7056980-a8b2-42aa-8a0e-c1fc85d1f40d"
      },
      "source" : {
        "endpoint" : "https://sor2.sum.dsdn.dk/#id=265161000016000"
      },
      "focus" : [{
        "reference" : "Encounter/e07c4bd4-cfad-4c4d-9c4b-e4ba3424a65b"
      }]
    }
  },
  {
    "fullUrl" : "Patient/519d5170-81ca-11ed-a1eb-0242ac120002",
    "resource" : {
      "resourceType" : "Patient",
      "id" : "519d5170-81ca-11ed-a1eb-0242ac120002",
      "meta" : {
        "profile" : ["http://medcomfhir.dk/ig/core/StructureDefinition/medcom-core-patient"]
      },
      "text" : {
        "status" : "generated",
        "div" : "<div xmlns=\"http://www.w3.org/1999/xhtml\"><p><b>Generated Narrative: Patient</b><a name=\"519d5170-81ca-11ed-a1eb-0242ac120002\"/></p><div style=\"display: inline-block; background-color: #d9e0e7; padding: 6px; margin: 4px; border: 1px solid #8da1b4; border-radius: 5px; line-height: 60%\"><p style=\"margin-bottom: 0px\">Resource Patient \"519d5170-81ca-11ed-a1eb-0242ac120002\"</p><p style=\"margin-bottom: 0px\">Profile: \n                                <a href=\"http://medcomfhir.dk/ig/core/2.1.0/StructureDefinition-medcom-core-patient.html\">MedComCorePatient</a></p></div><p><b>identifier</b>: id: 2509479989\n                        </p><p><b>name</b>: Elmer (OFFICIAL)\n                        </p></div>"
      },
      "identifier" : [{
        "system" : "urn:oid:1.2.208.176.1.2",
        "value" : "2509479989"
      }],
      "name" : [{
        "use" : "official",
        "family" : "Elmer"
      }]
    }
  },
  {
    "fullUrl" : "Encounter/e07c4bd4-cfad-4c4d-9c4b-e4ba3424a65b",
    "resource" : {
      "resourceType" : "Encounter",
      "id" : "e07c4bd4-cfad-4c4d-9c4b-e4ba3424a65b",
      "meta" : {
        "profile" : ["http://medcomfhir.dk/ig/hospitalnotification/StructureDefinition/medcom-hospitalNotification-encounter"]
      },
      "text" : {
        "status" : "extensions",
        "div" : "<div xmlns=\"http://www.w3.org/1999/xhtml\"><p><b>Generated Narrative: Encounter</b><a name=\"e07c4bd4-cfad-4c4d-9c4b-e4ba3424a65b\"/></p><div style=\"display: inline-block; background-color: #d9e0e7; padding: 6px; margin: 4px; border: 1px solid #8da1b4; border-radius: 5px; line-height: 60%\"><p style=\"margin-bottom: 0px\">Resource Encounter \"e07c4bd4-cfad-4c4d-9c4b-e4ba3424a65b\"</p><p style=\"margin-bottom: 0px\">Profile: \n                                <a href=\"StructureDefinition-medcom-hospitalNotification-encounter.html\">MedComHospitalNotificationEncounter</a></p></div><p><b>MedComHospitalNotificationLeavePeriodExtension</b>: 2023-03-03 14:00:10+0200 --&gt; 2023-03-05 15:30:00+0200\n                        </p><p><b>status</b>: in-progress\n                        </p><p><b>class</b>: inpatient encounter (Details: http://terminology.hl7.org/CodeSystem/v3-ActCode code IMP = 'inpatient encounter', stated as 'null')\n                        </p><p><b>subject</b>: \n                            <a href=\"#Patient_519d5170-81ca-11ed-a1eb-0242ac120002\">See above (Patient/519d5170-81ca-11ed-a1eb-0242ac120002)</a></p><p><b>episodeOfCare</b>: \n                            <span/></p><p><b>period</b>: 2023-03-01 12:00:00+0200 --&gt; (ongoing)\n                        </p><p><b>serviceProvider</b>: \n                            <a href=\"#Organization_o7056980-a8b2-42aa-8a0e-c1fc85d1f40d\">See above (Organization/o7056980-a8b2-42aa-8a0e-c1fc85d1f40d)</a></p></div>"
      },
      "extension" : [{
        "url" : "http://medcomfhir.dk/ig/hospitalnotification/StructureDefinition/medcom-hospitalnotifiation-leave-period-extension",
        "valuePeriod" : {
          "start" : "2023-03-03T14:00:10+01:00",
          "end" : "2023-03-05T15:30:00+01:00"
        }
      }],
      "status" : "in-progress",
      "class" : {
        "system" : "http://terminology.hl7.org/CodeSystem/v3-ActCode",
        "code" : "IMP"
      },
      "subject" : {
        "reference" : "Patient/519d5170-81ca-11ed-a1eb-0242ac120002"
      },
      "episodeOfCare" : [{
        "identifier" : {
          "system" : "https://sor2.sum.dsdn.dk/#id=265161000016000",
          "value" : "04675bbd-c540-4545-924c-1fa79b64535c"
        }
      }],
      "period" : {
        "start" : "2023-03-01T12:00:00+01:00"
      },
      "serviceProvider" : {
        "reference" : "Organization/o7056980-a8b2-42aa-8a0e-c1fc85d1f40d"
      }
    }
  },
  {
    "fullUrl" : "Organization/55ba5884-81ca-11ed-a1eb-0242ac120002",
    "resource" : {
      "resourceType" : "Organization",
      "id" : "55ba5884-81ca-11ed-a1eb-0242ac120002",
      "meta" : {
        "profile" : ["http://medcomfhir.dk/ig/messaging/StructureDefinition/medcom-messaging-organization"]
      },
      "text" : {
        "status" : "generated",
        "div" : "<div xmlns=\"http://www.w3.org/1999/xhtml\"><p><b>Generated Narrative: Organization</b><a name=\"55ba5884-81ca-11ed-a1eb-0242ac120002\"/></p><div style=\"display: inline-block; background-color: #d9e0e7; padding: 6px; margin: 4px; border: 1px solid #8da1b4; border-radius: 5px; line-height: 60%\"><p style=\"margin-bottom: 0px\">Resource Organization \"55ba5884-81ca-11ed-a1eb-0242ac120002\"</p><p style=\"margin-bottom: 0px\">Profile: \n                                <a href=\"http://medcomfhir.dk/ig/messaging/2.0.0/StructureDefinition-medcom-messaging-organization.html\">MedComMessagingOrganization</a></p></div><p><b>identifier</b>: id: 5790001348120, id: 953741000016009\n                        </p><p><b>name</b>: Plejecenter Herlev\n                        </p></div>"
      },
      "identifier" : [{
        "system" : "https://www.gs1.org/gln",
        "value" : "5790001348120"
      },
      {
        "system" : "urn:oid:1.2.208.176.1.1",
        "value" : "953741000016009"
      }],
      "name" : "Plejecenter Herlev"
    }
  },
  {
    "fullUrl" : "Organization/o7056980-a8b2-42aa-8a0e-c1fc85d1f40d",
    "resource" : {
      "resourceType" : "Organization",
      "id" : "o7056980-a8b2-42aa-8a0e-c1fc85d1f40d",
      "meta" : {
        "profile" : ["http://medcomfhir.dk/ig/messaging/StructureDefinition/medcom-messaging-organization"]
      },
      "text" : {
        "status" : "generated",
        "div" : "<div xmlns=\"http://www.w3.org/1999/xhtml\"><p><b>Generated Narrative: Organization</b><a name=\"o7056980-a8b2-42aa-8a0e-c1fc85d1f40d\"/></p><div style=\"display: inline-block; background-color: #d9e0e7; padding: 6px; margin: 4px; border: 1px solid #8da1b4; border-radius: 5px; line-height: 60%\"><p style=\"margin-bottom: 0px\">Resource Organization \"o7056980-a8b2-42aa-8a0e-c1fc85d1f40d\"</p><p style=\"margin-bottom: 0px\">Profile: \n                                <a href=\"http://medcomfhir.dk/ig/messaging/2.0.0/StructureDefinition-medcom-messaging-organization.html\">MedComMessagingOrganization</a></p></div><p><b>identifier</b>: id: 5790000209354, id: 265161000016000\n                        </p><p><b>name</b>: Hjerteafdelingen p책 Herlev og Gentofte hospital\n                        </p></div>"
      },
      "identifier" : [{
        "system" : "https://www.gs1.org/gln",
        "value" : "5790000209354"
      },
      {
        "system" : "urn:oid:1.2.208.176.1.1",
        "value" : "265161000016000"
      }],
      "name" : "Hjerteafdelingen p책 Herlev og Gentofte hospital"
    }
  },
  {
    "fullUrl" : "Provenance/a7cf3888-6f42-4e4d-929c-d2475d24fba0",
    "resource" : {
      "resourceType" : "Provenance",
      "id" : "a7cf3888-6f42-4e4d-929c-d2475d24fba0",
      "meta" : {
        "profile" : ["http://medcomfhir.dk/ig/messaging/StructureDefinition/medcom-messaging-provenance"]
      },
      "text" : {
        "status" : "generated",
        "div" : "<div xmlns=\"http://www.w3.org/1999/xhtml\"><p><b>Generated Narrative: Provenance</b><a name=\"a7cf3888-6f42-4e4d-929c-d2475d24fba0\"/></p><div style=\"display: inline-block; background-color: #d9e0e7; padding: 6px; margin: 4px; border: 1px solid #8da1b4; border-radius: 5px; line-height: 60%\"><p style=\"margin-bottom: 0px\">Resource Provenance \"a7cf3888-6f42-4e4d-929c-d2475d24fba0\"</p><p style=\"margin-bottom: 0px\">Profile: \n                                <a href=\"http://medcomfhir.dk/ig/messaging/2.0.0/StructureDefinition-medcom-messaging-provenance.html\">MedComMessagingProvenance</a></p></div><p><b>target</b>: \n                            <a href=\"MessageHeader-b9b4818e-02de-4cc4-b418-d20cbc399006.html\">MessageHeader/b9b4818e-02de-4cc4-b418-d20cbc399006</a></p><p><b>occurred</b>: 2023-03-01 12:00:02+0200\n                        </p><p><b>recorded</b>: 7. dec. 2022 11.00.02\n                        </p><p><b>activity</b>: Start hospital stay-admission \n                            <span style=\"background: LightGoldenRodYellow; margin: 4px; border: 1px solid khaki\">( \n                                <a href=\"http://medcomfhir.dk/ig/terminology/1.1.1/CodeSystem-medcom-messaging-activityCodes.html\">MedComMessagingActivityCodes</a>#admit-inpatient)\n                            </span></p><h3>Agents</h3><table class=\"grid\"><tr><td>-</td><td><b>Who</b></td></tr><tr><td>*</td><td><a href=\"Organization-o7056980-a8b2-42aa-8a0e-c1fc85d1f40d.html\">Organization/o7056980-a8b2-42aa-8a0e-c1fc85d1f40d</a> \"Hjerteafdelingen p책 Herlev og Gentofte hospital\"\n                                </td></tr></table></div>"
      },
      "target" : [{
        "reference" : "MessageHeader/b9b4818e-02de-4cc4-b418-d20cbc399006"
      }],
      "occurredDateTime" : "2023-03-01T12:00:02+01:00",
      "recorded" : "2023-03-01T12:00:02+01:00",
      "activity" : {
        "coding" : [{
          "system" : "http://medcomfhir.dk/ig/terminology/CodeSystem/medcom-messaging-activityCodes",
          "code" : "admit-inpatient"
        }]
      },
      "agent" : [{
        "who" : {
          "reference" : "Organization/o7056980-a8b2-42aa-8a0e-c1fc85d1f40d"
        }
      }]
    }
  },
  {
    "fullUrl" : "Provenance/dc421d0a-cded-470f-9a53-2ddba7583baa",
    "resource" : {
      "resourceType" : "Provenance",
      "id" : "dc421d0a-cded-470f-9a53-2ddba7583baa",
      "meta" : {
        "profile" : ["http://medcomfhir.dk/ig/messaging/StructureDefinition/medcom-messaging-provenance"]
      },
      "text" : {
        "status" : "generated",
        "div" : "<div xmlns=\"http://www.w3.org/1999/xhtml\"><p><b>Generated Narrative: Provenance</b><a name=\"dc421d0a-cded-470f-9a53-2ddba7583baa\"/></p><div style=\"display: inline-block; background-color: #d9e0e7; padding: 6px; margin: 4px; border: 1px solid #8da1b4; border-radius: 5px; line-height: 60%\"><p style=\"margin-bottom: 0px\">Resource Provenance \"dc421d0a-cded-470f-9a53-2ddba7583baa\"</p><p style=\"margin-bottom: 0px\">Profile: \n                                <a href=\"http://medcomfhir.dk/ig/messaging/2.0.0/StructureDefinition-medcom-messaging-provenance.html\">MedComMessagingProvenance</a></p></div><p><b>target</b>: \n                            <a href=\"MessageHeader-e563a2b2-bf92-4b13-bbd2-0a021a399006.html\">MessageHeader/e563a2b2-bf92-4b13-bbd2-0a021a399006</a></p><p><b>occurred</b>: 2023-03-03 14:00:12+0200\n                        </p><p><b>recorded</b>: 13. dec. 2022 13.00.12\n                        </p><p><b>activity</b>: Start leave \n                            <span style=\"background: LightGoldenRodYellow; margin: 4px; border: 1px solid khaki\">( \n                                <a href=\"http://medcomfhir.dk/ig/terminology/1.1.1/CodeSystem-medcom-messaging-activityCodes.html\">MedComMessagingActivityCodes</a>#start-leave-inpatient)\n                            </span></p><h3>Agents</h3><table class=\"grid\"><tr><td>-</td><td><b>Who</b></td></tr><tr><td>*</td><td><a href=\"Organization-o7056980-a8b2-42aa-8a0e-c1fc85d1f40d.html\">Organization/o7056980-a8b2-42aa-8a0e-c1fc85d1f40d</a> \"Hjerteafdelingen p책 Herlev og Gentofte hospital\"\n                                </td></tr></table><h3>Entities</h3><table class=\"grid\"><tr><td>-</td><td><b>Role</b></td><td><b>What</b></td></tr><tr><td>*</td><td>revision</td><td><a href=\"MessageHeader-b9b4818e-02de-4cc4-b418-d20cbc399006.html\">MessageHeader/b9b4818e-02de-4cc4-b418-d20cbc399006</a></td></tr></table></div>"
      },
      "target" : [{
        "reference" : "MessageHeader/e563a2b2-bf92-4b13-bbd2-0a021a399006"
      }],
      "occurredDateTime" : "2023-03-03T14:00:12+01:00",
      "recorded" : "2023-03-03T14:00:12+01:00",
      "activity" : {
        "coding" : [{
          "system" : "http://medcomfhir.dk/ig/terminology/CodeSystem/medcom-messaging-activityCodes",
          "code" : "start-leave-inpatient"
        }]
      },
      "agent" : [{
        "who" : {
          "reference" : "Organization/o7056980-a8b2-42aa-8a0e-c1fc85d1f40d"
        }
      }],
      "entity" : [{
        "role" : "revision",
        "what" : {
          "reference" : "MessageHeader/b9b4818e-02de-4cc4-b418-d20cbc399006"
        }
      }]
    }
  },
  {
    "fullUrl" : "Provenance/e4db4939-7c60-4ac6-aefc-523f809ccba6",
    "resource" : {
      "resourceType" : "Provenance",
      "id" : "e4db4939-7c60-4ac6-aefc-523f809ccba6",
      "meta" : {
        "profile" : ["http://medcomfhir.dk/ig/messaging/StructureDefinition/medcom-messaging-provenance"]
      },
      "text" : {
        "status" : "generated",
        "div" : "<div xmlns=\"http://www.w3.org/1999/xhtml\"><p><b>Generated Narrative: Provenance</b><a name=\"e4db4939-7c60-4ac6-aefc-523f809ccba6\"/></p><div style=\"display: inline-block; background-color: #d9e0e7; padding: 6px; margin: 4px; border: 1px solid #8da1b4; border-radius: 5px; line-height: 60%\"><p style=\"margin-bottom: 0px\">Resource Provenance \"e4db4939-7c60-4ac6-aefc-523f809ccba6\"</p><p style=\"margin-bottom: 0px\">Profile: \n                                <a href=\"http://medcomfhir.dk/ig/messaging/2.0.0/StructureDefinition-medcom-messaging-provenance.html\">MedComMessagingProvenance</a></p></div><p><b>target</b>: \n                            <a href=\"#MessageHeader_f47254da-f170-46f0-b624-4778a9399006\">See above (MessageHeader/f47254da-f170-46f0-b624-4778a9399006)</a></p><p><b>occurred</b>: 2023-03-05 15:30:02+0200\n                        </p><p><b>recorded</b>: 14. dec. 2022 14.30.02\n                        </p><p><b>activity</b>: End leave \n                            <span style=\"background: LightGoldenRodYellow; margin: 4px; border: 1px solid khaki\">( \n                                <a href=\"http://medcomfhir.dk/ig/terminology/1.1.1/CodeSystem-medcom-messaging-activityCodes.html\">MedComMessagingActivityCodes</a>#end-leave-inpatient)\n                            </span></p><h3>Agents</h3><table class=\"grid\"><tr><td>-</td><td><b>Who</b></td></tr><tr><td>*</td><td><a href=\"#Organization_o7056980-a8b2-42aa-8a0e-c1fc85d1f40d\">See above (Organization/o7056980-a8b2-42aa-8a0e-c1fc85d1f40d)</a></td></tr></table><h3>Entities</h3><table class=\"grid\"><tr><td>-</td><td><b>Role</b></td><td><b>What</b></td></tr><tr><td>*</td><td>revision</td><td><a href=\"MessageHeader-e563a2b2-bf92-4b13-bbd2-0a021a399006.html\">MessageHeader/e563a2b2-bf92-4b13-bbd2-0a021a399006</a></td></tr></table></div>"
      },
      "target" : [{
        "reference" : "MessageHeader/f47254da-f170-46f0-b624-4778a9399006"
      }],
      "occurredDateTime" : "2023-03-05T15:30:02+01:00",
      "recorded" : "2023-03-05T15:30:02+01:00",
      "activity" : {
        "coding" : [{
          "system" : "http://medcomfhir.dk/ig/terminology/CodeSystem/medcom-messaging-activityCodes",
          "code" : "end-leave-inpatient"
        }]
      },
      "agent" : [{
        "who" : {
          "reference" : "Organization/o7056980-a8b2-42aa-8a0e-c1fc85d1f40d"
        }
      }],
      "entity" : [{
        "role" : "revision",
        "what" : {
          "reference" : "MessageHeader/e563a2b2-bf92-4b13-bbd2-0a021a399006"
        }
      }]
    }
  }]
}