<?xml version="1.0" encoding="UTF-8"?>

<Bundle xmlns="http://hl7.org/fhir">
  <id value="34fbe325-7edb-4956-a1db-15f2e053ac4d"/>
  <meta>
    <profile value="http://medcomfhir.dk/ig/hospitalnotification/StructureDefinition/medcom-hospitalNotification-message"/>
  </meta>
  <type value="message"/>
  <timestamp value="2023-02-28T10:00:06+01:00"/>
  <entry>
    <fullUrl value="MessageHeader/i50fc5fe-2d11-4ef3-acac-2e2e5c399006"/>
    <resource>
      <MessageHeader>
        <id value="i50fc5fe-2d11-4ef3-acac-2e2e5c399006"/>
        <meta>
          <profile value="http://medcomfhir.dk/ig/hospitalnotification/StructureDefinition/medcom-hospitalNotification-messageHeader"/>
        </meta>
        <text>
          <status value="extensions"/><div xmlns="http://www.w3.org/1999/xhtml"><p><b>Generated Narrative: MessageHeader</b><a name="i50fc5fe-2d11-4ef3-acac-2e2e5c399006"/></p><div style="display: inline-block; background-color: #d9e0e7; padding: 6px; margin: 4px; border: 1px solid #8da1b4; border-radius: 5px; line-height: 60%"><p style="margin-bottom: 0px">Resource MessageHeader "i50fc5fe-2d11-4ef3-acac-2e2e5c399006"</p><p style="margin-bottom: 0px">Profile: 
                                <a href="StructureDefinition-medcom-hospitalNotification-messageHeader.html">MedComHospitalNotificationMessageHeader</a></p></div><p><b>MedComReportOfAdmissionExtension</b>: true
                        </p><p><b>MedComReportOfAdmissionRecipientExtension</b>: 
                            <a href="#Organization_1f5882b4-81d1-11ed-a1eb-0242ac120002">See above (Organization/1f5882b4-81d1-11ed-a1eb-0242ac120002)</a></p><p><b>event</b>: Hospital Notification Message (Details: http://medcomfhir.dk/ig/terminology/CodeSystem/medcom-messaging-eventCodes code hospital-notification-message = 'Hospital Notification Message', stated as 'null')
                        </p><h3>Destinations</h3><table class="grid"><tr><td>-</td><td><b>Extension</b></td><td><b>Endpoint</b></td><td><b>Receiver</b></td></tr><tr><td>*</td><td/><td><a href="https://sor2.sum.dsdn.dk/#id=953741000016009">https://sor2.sum.dsdn.dk/#id=953741000016009</a></td><td><a href="#Organization_103fbebe-81d1-11ed-a1eb-0242ac120002">See above (Organization/103fbebe-81d1-11ed-a1eb-0242ac120002)</a></td></tr></table><p><b>sender</b>: 
                            <a href="#Organization_1f5882b4-81d1-11ed-a1eb-0242ac120002">See above (Organization/1f5882b4-81d1-11ed-a1eb-0242ac120002)</a></p><h3>Sources</h3><table class="grid"><tr><td>-</td><td><b>Endpoint</b></td></tr><tr><td>*</td><td><a href="https://sor2.sum.dsdn.dk/#id=265161000016000">https://sor2.sum.dsdn.dk/#id=265161000016000</a></td></tr></table><p><b>focus</b>: 
                            <a href="#Encounter_h2cb16ce-af8c-46f3-be9e-89406ef3e7b5">See above (Encounter/h2cb16ce-af8c-46f3-be9e-89406ef3e7b5)</a></p></div>
        </text>
        <extension url="http://medcomfhir.dk/ig/hospitalnotification/StructureDefinition/medcom-messaging-reportOfAdmissionExtension">
          <valueBoolean value="true"/>
        </extension>
        <extension url="http://medcomfhir.dk/ig/hospitalnotification/StructureDefinition/medcom-messaging-reportOfAdmissionRecipientExtension">
          <valueReference>
            <reference value="Organization/1f5882b4-81d1-11ed-a1eb-0242ac120002"/>
          </valueReference>
        </extension>
        <eventCoding>
          <system value="http://medcomfhir.dk/ig/terminology/CodeSystem/medcom-messaging-eventCodes"/>
          <code value="hospital-notification-message"/>
        </eventCoding>
        <destination>
          <extension url="http://medcomfhir.dk/ig/messaging/StructureDefinition/medcom-messaging-destinationUseExtension">
            <valueCoding>
              <system value="http://medcomfhir.dk/ig/terminology/CodeSystem/medcom-messaging-destinationUse"/>
              <code value="primary"/>
            </valueCoding>
          </extension>
          <endpoint value="https://sor2.sum.dsdn.dk/#id=953741000016009"/>
          <receiver>
            <reference value="Organization/103fbebe-81d1-11ed-a1eb-0242ac120002"/>
          </receiver>
        </destination>
        <sender>
          <reference value="Organization/1f5882b4-81d1-11ed-a1eb-0242ac120002"/>
        </sender>
        <source>
          <endpoint value="https://sor2.sum.dsdn.dk/#id=265161000016000"/>
        </source>
        <focus>
          <reference value="Encounter/h2cb16ce-af8c-46f3-be9e-89406ef3e7b5"/>
        </focus>
      </MessageHeader>
    </resource>
  </entry>
  <entry>
    <fullUrl value="Patient/fdc1fc66-81d0-11ed-a1eb-0242ac120002"/>
    <resource>
      <Patient>
        <id value="fdc1fc66-81d0-11ed-a1eb-0242ac120002"/>
        <meta>
          <profile value="http://medcomfhir.dk/ig/core/StructureDefinition/medcom-core-patient"/>
        </meta>
        <text>
          <status value="generated"/><div xmlns="http://www.w3.org/1999/xhtml"><p><b>Generated Narrative: Patient</b><a name="fdc1fc66-81d0-11ed-a1eb-0242ac120002"/></p><div style="display: inline-block; background-color: #d9e0e7; padding: 6px; margin: 4px; border: 1px solid #8da1b4; border-radius: 5px; line-height: 60%"><p style="margin-bottom: 0px">Resource Patient "fdc1fc66-81d0-11ed-a1eb-0242ac120002"</p><p style="margin-bottom: 0px">Profile: 
                                <a href="http://medcomfhir.dk/ig/core/2.1.0/StructureDefinition-medcom-core-patient.html">MedComCorePatient</a></p></div><p><b>identifier</b>: id: 2509479989
                        </p><p><b>name</b>: Elmer (OFFICIAL)
                        </p></div>
        </text>
        <identifier>
          <system value="urn:oid:1.2.208.176.1.2"/>
          <value value="2509479989"/>
        </identifier>
        <name>
          <use value="official"/>
          <family value="Elmer"/>
        </name>
      </Patient>
    </resource>
  </entry>
  <entry>
    <fullUrl value="Encounter/h2cb16ce-af8c-46f3-be9e-89406ef3e7b5"/>
    <resource>
      <Encounter>
        <id value="h2cb16ce-af8c-46f3-be9e-89406ef3e7b5"/>
        <meta>
          <profile value="http://medcomfhir.dk/ig/hospitalnotification/StructureDefinition/medcom-hospitalNotification-encounter"/>
        </meta>
        <text>
          <status value="generated"/><div xmlns="http://www.w3.org/1999/xhtml"><p><b>Generated Narrative: Encounter</b><a name="h2cb16ce-af8c-46f3-be9e-89406ef3e7b5"/></p><div style="display: inline-block; background-color: #d9e0e7; padding: 6px; margin: 4px; border: 1px solid #8da1b4; border-radius: 5px; line-height: 60%"><p style="margin-bottom: 0px">Resource Encounter "h2cb16ce-af8c-46f3-be9e-89406ef3e7b5"</p><p style="margin-bottom: 0px">Profile: 
                                <a href="StructureDefinition-medcom-hospitalNotification-encounter.html">MedComHospitalNotificationEncounter</a></p></div><p><b>status</b>: in-progress
                        </p><p><b>class</b>: emergency (Details: http://terminology.hl7.org/CodeSystem/v3-ActCode code EMER = 'emergency', stated as 'null')
                        </p><p><b>subject</b>: 
                            <a href="#Patient_fdc1fc66-81d0-11ed-a1eb-0242ac120002">See above (Patient/fdc1fc66-81d0-11ed-a1eb-0242ac120002)</a></p><p><b>episodeOfCare</b>: 
                            <span/></p><p><b>period</b>: 2023-02-28 10:00:04+0200 --&gt; (ongoing)
                        </p><p><b>serviceProvider</b>: 
                            <a href="#Organization_1f5882b4-81d1-11ed-a1eb-0242ac120002">See above (Organization/1f5882b4-81d1-11ed-a1eb-0242ac120002)</a></p></div>
        </text>
        <status value="in-progress"/>
        <class>
          <system value="http://terminology.hl7.org/CodeSystem/v3-ActCode"/>
          <code value="EMER"/>
        </class>
        <subject>
          <reference value="Patient/fdc1fc66-81d0-11ed-a1eb-0242ac120002"/>
        </subject>
        <episodeOfCare>
          <identifier>
            <system value="https://sor2.sum.dsdn.dk/#id=265161000016000"/>
            <value value="c10697b6-8d7a-4d2d-ae93-f7f56abd52cc"/>
          </identifier>
        </episodeOfCare>
        <period>
          <start value="2023-02-28T10:00:04+01:00"/>
        </period>
        <serviceProvider>
          <reference value="Organization/1f5882b4-81d1-11ed-a1eb-0242ac120002"/>
        </serviceProvider>
      </Encounter>
    </resource>
  </entry>
  <entry>
    <fullUrl value="Organization/103fbebe-81d1-11ed-a1eb-0242ac120002"/>
    <resource>
      <Organization>
        <id value="103fbebe-81d1-11ed-a1eb-0242ac120002"/>
        <meta>
          <profile value="http://medcomfhir.dk/ig/messaging/StructureDefinition/medcom-messaging-organization"/>
        </meta>
        <text>
          <status value="generated"/><div xmlns="http://www.w3.org/1999/xhtml"><p><b>Generated Narrative: Organization</b><a name="103fbebe-81d1-11ed-a1eb-0242ac120002"/></p><div style="display: inline-block; background-color: #d9e0e7; padding: 6px; margin: 4px; border: 1px solid #8da1b4; border-radius: 5px; line-height: 60%"><p style="margin-bottom: 0px">Resource Organization "103fbebe-81d1-11ed-a1eb-0242ac120002"</p><p style="margin-bottom: 0px">Profile: 
                                <a href="http://medcomfhir.dk/ig/messaging/2.0.0/StructureDefinition-medcom-messaging-organization.html">MedComMessagingOrganization</a></p></div><p><b>identifier</b>: id: 5790001348120, id: 953741000016009
                        </p><p><b>name</b>: Plejecenter Herlev
                        </p></div>
        </text>
        <identifier>
          <system value="https://www.gs1.org/gln"/>
          <value value="5790001348120"/>
        </identifier>
        <identifier>
          <system value="urn:oid:1.2.208.176.1.1"/>
          <value value="953741000016009"/>
        </identifier>
        <name value="Plejecenter Herlev"/>
      </Organization>
    </resource>
  </entry>
  <entry>
    <fullUrl value="Organization/1f5882b4-81d1-11ed-a1eb-0242ac120002"/>
    <resource>
      <Organization>
        <id value="1f5882b4-81d1-11ed-a1eb-0242ac120002"/>
        <meta>
          <profile value="http://medcomfhir.dk/ig/messaging/StructureDefinition/medcom-messaging-organization"/>
        </meta>
        <text>
          <status value="generated"/><div xmlns="http://www.w3.org/1999/xhtml"><p><b>Generated Narrative: Organization</b><a name="1f5882b4-81d1-11ed-a1eb-0242ac120002"/></p><div style="display: inline-block; background-color: #d9e0e7; padding: 6px; margin: 4px; border: 1px solid #8da1b4; border-radius: 5px; line-height: 60%"><p style="margin-bottom: 0px">Resource Organization "1f5882b4-81d1-11ed-a1eb-0242ac120002"</p><p style="margin-bottom: 0px">Profile: 
                                <a href="http://medcomfhir.dk/ig/messaging/2.0.0/StructureDefinition-medcom-messaging-organization.html">MedComMessagingOrganization</a></p></div><p><b>identifier</b>: id: 5790000209354, id: 265161000016000
                        </p><p><b>name</b>: Hjerteafdelingen på Herlev og Gentofte hospital
                        </p></div>
        </text>
        <identifier>
          <system value="https://www.gs1.org/gln"/>
          <value value="5790000209354"/>
        </identifier>
        <identifier>
          <system value="urn:oid:1.2.208.176.1.1"/>
          <value value="265161000016000"/>
        </identifier>
        <name value="Hjerteafdelingen på Herlev og Gentofte hospital"/>
      </Organization>
    </resource>
  </entry>
  <entry>
    <fullUrl value="Provenance/h60bd482-9c47-43c5-9b77-1134eaa2d5f0"/>
    <resource>
      <Provenance>
        <id value="h60bd482-9c47-43c5-9b77-1134eaa2d5f0"/>
        <meta>
          <profile value="http://medcomfhir.dk/ig/messaging/StructureDefinition/medcom-messaging-provenance"/>
        </meta>
        <text>
          <status value="generated"/><div xmlns="http://www.w3.org/1999/xhtml"><p><b>Generated Narrative: Provenance</b><a name="h60bd482-9c47-43c5-9b77-1134eaa2d5f0"/></p><div style="display: inline-block; background-color: #d9e0e7; padding: 6px; margin: 4px; border: 1px solid #8da1b4; border-radius: 5px; line-height: 60%"><p style="margin-bottom: 0px">Resource Provenance "h60bd482-9c47-43c5-9b77-1134eaa2d5f0"</p><p style="margin-bottom: 0px">Profile: 
                                <a href="http://medcomfhir.dk/ig/messaging/2.0.0/StructureDefinition-medcom-messaging-provenance.html">MedComMessagingProvenance</a></p></div><p><b>target</b>: 
                            <a href="#MessageHeader_i50fc5fe-2d11-4ef3-acac-2e2e5c399006">See above (MessageHeader/i50fc5fe-2d11-4ef3-acac-2e2e5c399006)</a></p><p><b>occurred</b>: 2023-02-28 10:00:06+0200
                        </p><p><b>recorded</b>: 1. dec. 2022 09.00.06
                        </p><p><b>activity</b>: Start hospital stay-acute ambulant 
                            <span style="background: LightGoldenRodYellow; margin: 4px; border: 1px solid khaki">(
                                <a href="http://medcomfhir.dk/ig/terminology/1.1.1/CodeSystem-medcom-messaging-activityCodes.html">MedComMessagingActivityCodes</a>#admit-emergency)
                            </span></p><h3>Agents</h3><table class="grid"><tr><td>-</td><td><b>Who</b></td></tr><tr><td>*</td><td><a href="#Organization_1f5882b4-81d1-11ed-a1eb-0242ac120002">See above (Organization/1f5882b4-81d1-11ed-a1eb-0242ac120002)</a></td></tr></table></div>
        </text>
        <target>
          <reference value="MessageHeader/i50fc5fe-2d11-4ef3-acac-2e2e5c399006"/>
        </target>
        <occurredDateTime value="2023-02-28T10:00:06+01:00"/>
        <recorded value="2023-02-28T10:00:06+01:00"/>
        <activity>
          <coding>
            <system value="http://medcomfhir.dk/ig/terminology/CodeSystem/medcom-messaging-activityCodes"/>
            <code value="admit-emergency"/>
          </coding>
        </activity>
        <agent>
          <who>
            <reference value="Organization/1f5882b4-81d1-11ed-a1eb-0242ac120002"/>
          </who>
        </agent>
      </Provenance>
    </resource>
  </entry>
</Bundle>