<?xml version="1.0" encoding="UTF-8"?>

<Bundle xmlns="http://hl7.org/fhir">
  <id value="faa0c104-0ebf-49cb-bad1-9e0f59436e18"/>
  <meta>
    <profile value="http://medcomfhir.dk/ig/homecareobservation/StructureDefinition/medcom-homecareobservation-message"/>
  </meta>
  <type value="message"/>
  <timestamp value="2023-09-13T12:24:09+02:00"/>
  <entry>
    <fullUrl value="http://medcomfhir.dk/ig/homecareobservation/MessageHeader/e9f4cc68-b1b7-46b2-ba74-7cc39a914bfa"/>
    <resource>
      <MessageHeader>
        <id value="e9f4cc68-b1b7-46b2-ba74-7cc39a914bfa"/>
        <meta>
          <profile value="http://medcomfhir.dk/ig/homecareobservation/StructureDefinition/medcom-homecareobservation-messageheader"/>
        </meta>
        <text>
          <status value="generated"/><div xmlns="http://www.w3.org/1999/xhtml"><a name="MessageHeader_e9f4cc68-b1b7-46b2-ba74-7cc39a914bfa"> </a><p class="res-header-id"><b>Generated Narrative: MessageHeader e9f4cc68-b1b7-46b2-ba74-7cc39a914bfa</b></p><a name="e9f4cc68-b1b7-46b2-ba74-7cc39a914bfa"> </a><a name="hce9f4cc68-b1b7-46b2-ba74-7cc39a914bfa"> </a><div style="display: inline-block; background-color: #d9e0e7; padding: 6px; margin: 4px; border: 1px solid #8da1b4; border-radius: 5px; line-height: 60%"><p style="margin-bottom: 0px"/><p style="margin-bottom: 0px">Profile: <a href="StructureDefinition-medcom-homecareobservation-messageheader.html">MedComHomeCareObservationMessageHeader</a></p></div><p><b>event</b>: <a href="http://medcomfhir.dk/ig/terminology/2.0.0-draft/CodeSystem-medcom-messaging-eventCodes.html#medcom-messaging-eventCodes-homecareobservation-message">MedComMessagingEventCodes homecareobservation-message</a>: HomeCare Observation Message</p><h3>Destinations</h3><table class="grid"><tr><td style="display: none">-</td><td><b>Extension</b></td><td><b>Endpoint</b></td><td><b>Receiver</b></td></tr><tr><td style="display: none">*</td><td/><td><a href="https://sor2.sum.dsdn.dk/#id=52581000016005">https://sor2.sum.dsdn.dk/#id=52581000016005</a></td><td><a href="Organization-d1c1fa90-2c7e-4dd7-b2e8-e40281635a98.html">Organization Skødstrup Lægepraksis</a></td></tr></table><p><b>sender</b>: <a href="Organization-72cc3a2c-1dda-4b95-b50a-0f7ac19640f4.html">Organization Pleje og Rehabilitering</a></p><h3>Sources</h3><table class="grid"><tr><td style="display: none">-</td><td><b>Endpoint</b></td></tr><tr><td style="display: none">*</td><td><a href="https://sor2.sum.dsdn.dk/#id=1144561000016002">https://sor2.sum.dsdn.dk/#id=1144561000016002</a></td></tr></table><p><b>focus</b>: <a href="DiagnosticReport-6d08f000-33cc-41f3-a7c2-c086d53d31a7.html">Diagnostic Report for 'HomeCareDiagnosticReport' for '-&gt;Elmer (official) (no stated gender), DoB Unknown ( urn:oid:1.2.208.176.1.2#2509479989)'</a></p><p><b>definition</b>: <a href="http://medcomfhir.dk/ig/messagedefinitions/1.0.1-trial-use/MessageDefinition-MedComHomeCareObservationMessageDefinitionV1.1.html">http://medcomfhir.dk/ig/messagedefinitions/MessageDefinition/MedComHomeCareObservationMessageDefinition|1.1</a></p></div>
        </text>
        <eventCoding>
          <system value="http://medcomfhir.dk/ig/terminology/CodeSystem/medcom-messaging-eventCodes"/>
          <code value="homecareobservation-message"/>
        </eventCoding>
        <destination>
          <extension url="http://medcomfhir.dk/ig/messaging/StructureDefinition/medcom-messaging-destinationUseExtension">
            <valueCoding>
              <system value="http://medcomfhir.dk/ig/terminology/CodeSystem/medcom-messaging-destinationUse"/>
              <code value="primary"/>
            </valueCoding>
          </extension>
          <endpoint value="https://sor2.sum.dsdn.dk/#id=52581000016005"/>
          <receiver>
            <reference value="Organization/d1c1fa90-2c7e-4dd7-b2e8-e40281635a98"/>
          </receiver>
        </destination>
        <sender>
          <reference value="Organization/72cc3a2c-1dda-4b95-b50a-0f7ac19640f4"/>
        </sender>
        <source>
          <endpoint value="https://sor2.sum.dsdn.dk/#id=1144561000016002"/>
        </source>
        <focus>
          <reference value="DiagnosticReport/6d08f000-33cc-41f3-a7c2-c086d53d31a7"/>
        </focus>
        <definition value="http://medcomfhir.dk/ig/messagedefinitions/MessageDefinition/MedComHomeCareObservationMessageDefinition|1.1"/>
      </MessageHeader>
    </resource>
  </entry>
  <entry>
    <fullUrl value="http://medcomfhir.dk/ig/homecareobservation/Patient/733cef33-3626-422b-955d-d506aaa65fe1"/>
    <resource>
      <Patient>
        <id value="733cef33-3626-422b-955d-d506aaa65fe1"/>
        <meta>
          <profile value="http://medcomfhir.dk/ig/core/StructureDefinition/medcom-core-patient"/>
        </meta>
        <text>
          <status value="generated"/><div xmlns="http://www.w3.org/1999/xhtml"><a name="Patient_733cef33-3626-422b-955d-d506aaa65fe1"> </a><p class="res-header-id"><b>Generated Narrative: Patient 733cef33-3626-422b-955d-d506aaa65fe1</b></p><a name="733cef33-3626-422b-955d-d506aaa65fe1"> </a><a name="hc733cef33-3626-422b-955d-d506aaa65fe1"> </a><div style="display: inline-block; background-color: #d9e0e7; padding: 6px; margin: 4px; border: 1px solid #8da1b4; border-radius: 5px; line-height: 60%"><p style="margin-bottom: 0px"/><p style="margin-bottom: 0px">Profile: <a href="http://medcomfhir.dk/ig/core/2.4.0/StructureDefinition-medcom-core-patient.html">MedComCorePatient</a></p></div><p style="border: 1px #661aff solid; background-color: #e6e6ff; padding: 10px;">Elmer (official) (no stated gender), DoB Unknown ( urn:oid:1.2.208.176.1.2#2509479989)</p><hr/></div>
        </text>
        <identifier>
          <system value="urn:oid:1.2.208.176.1.2"/>
          <value value="2509479989"/>
        </identifier>
        <name>
          <use value="official"/>
          <family value="Elmer"/>
        </name>
      </Patient>
    </resource>
  </entry>
  <entry>
    <fullUrl value="http://medcomfhir.dk/ig/homecareobservation/DiagnosticReport/6d08f000-33cc-41f3-a7c2-c086d53d31a7"/>
    <resource>
      <DiagnosticReport>
        <id value="6d08f000-33cc-41f3-a7c2-c086d53d31a7"/>
        <meta>
          <profile value="http://medcomfhir.dk/ig/homecareobservation/StructureDefinition/medcom-homecareobservation-diagnosticreport"/>
          <security>
            <system value="http://terminology.hl7.org/CodeSystem/v3-Confidentiality"/>
            <code value="R"/>
            <display value="Restricted"/>
          </security>
        </meta>
        <text>
          <status value="generated"/><div xmlns="http://www.w3.org/1999/xhtml"><a name="DiagnosticReport_6d08f000-33cc-41f3-a7c2-c086d53d31a7"> </a><p class="res-header-id"><b>Generated Narrative: DiagnosticReport 6d08f000-33cc-41f3-a7c2-c086d53d31a7</b></p><a name="6d08f000-33cc-41f3-a7c2-c086d53d31a7"> </a><a name="hc6d08f000-33cc-41f3-a7c2-c086d53d31a7"> </a><div style="display: inline-block; background-color: #d9e0e7; padding: 6px; margin: 4px; border: 1px solid #8da1b4; border-radius: 5px; line-height: 60%"><p style="margin-bottom: 0px"/><p style="margin-bottom: 0px">Profile: <a href="StructureDefinition-medcom-homecareobservation-diagnosticreport.html">MedComHomeCareObservationDiagnosticReport</a></p><p style="margin-bottom: 0px">Security Label: Restricted (Details: Confidentiality code R = 'Restricted')</p></div><h2><span title="Codes:{http://medcomfhir.dk/ig/terminology/CodeSystem/MedComDiagnosticReportCodes HomeCareReport}">HomeCareDiagnosticReport</span> </h2><table class="grid"><tr><td>Subject</td><td>Elmer (official) (no stated gender), DoB Unknown ( urn:oid:1.2.208.176.1.2#2509479989)</td></tr><tr><td>Reported</td><td>2023-09-12 12:24:08+0200</td></tr><tr><td>Performers</td><td> <a href="Organization-72cc3a2c-1dda-4b95-b50a-0f7ac19640f4.html">Organization Pleje og Rehabilitering</a> <a href="PractitionerRole-4b3b6f0f-a475-4b04-8a92-105e8ce6a7bf.html">PractitionerRole Sygeplejerske</a></td></tr></table><p><b>Report Details</b></p><table class="grid"><tr><td><b>Code</b></td><td><b>Value</b></td><td><b>Flags</b></td><td><b>When For</b></td></tr><tr><td><a href="Observation-4b8f899a-df12-4301-8287-9a77d46ded3d.html"><span title="Codes:{urn:oid:1.2.208.176.2.1 NPU04206}">U—Protein; arb.k.(proc.) = ?</span></a></td><td>1 +</td><td>Final, <span title="Codes:{http://medcomfhir.dk/ig/terminology/CodeSystem/medcom-core-interpretation-codes NI}">Not Interpreted</span></td><td>2023-09-13 12:24:08+0200</td></tr><tr><td><a href="Observation-f58819ff-d727-4740-a4ef-44eefc77022e.html"><span title="Codes:{urn:oid:1.2.208.176.2.1 NPU21578}">U—Nitrit; arb.k.(proc.) = ?</span></a></td><td>Negative</td><td>Final, <span title="Codes:{http://medcomfhir.dk/ig/terminology/CodeSystem/medcom-core-interpretation-codes NI}">Not Interpreted</span></td><td>2023-09-13 12:24:08+0200</td></tr><tr><td><a href="Observation-2fc2c078-825b-491d-9f8e-34926eb4f06f.html"><span title="Codes:{urn:oid:1.2.208.176.2.1 NPU03987}">U—Leukocytter; arb.k.(proc.) = ?</span></a></td><td>2 +</td><td>Final, <span title="Codes:{http://medcomfhir.dk/ig/terminology/CodeSystem/medcom-core-interpretation-codes NI}">Not Interpreted</span></td><td>2023-09-13 12:24:08+0200</td></tr></table></div>
        </text>
        <status value="final"/>
        <code>
          <coding>
            <system value="http://medcomfhir.dk/ig/terminology/CodeSystem/MedComDiagnosticReportCodes"/>
            <code value="HomeCareReport"/>
          </coding>
        </code>
        <subject>
          <reference value="Patient/733cef33-3626-422b-955d-d506aaa65fe1"/>
        </subject>
        <issued value="2023-09-12T12:24:08+02:00"/>
        <performer>
          <reference value="Organization/72cc3a2c-1dda-4b95-b50a-0f7ac19640f4"/>
        </performer>
        <performer>
          <reference value="PractitionerRole/4b3b6f0f-a475-4b04-8a92-105e8ce6a7bf"/>
        </performer>
        <result>
          <reference value="Observation/4b8f899a-df12-4301-8287-9a77d46ded3d"/>
        </result>
        <result>
          <reference value="Observation/f58819ff-d727-4740-a4ef-44eefc77022e"/>
        </result>
        <result>
          <reference value="Observation/2fc2c078-825b-491d-9f8e-34926eb4f06f"/>
        </result>
      </DiagnosticReport>
    </resource>
  </entry>
  <entry>
    <fullUrl value="http://medcomfhir.dk/ig/homecareobservation/PractitionerRole/4b3b6f0f-a475-4b04-8a92-105e8ce6a7bf"/>
    <resource>
      <PractitionerRole>
        <id value="4b3b6f0f-a475-4b04-8a92-105e8ce6a7bf"/>
        <meta>
          <profile value="http://medcomfhir.dk/ig/core/StructureDefinition/medcom-core-practitionerrole"/>
        </meta>
        <text>
          <status value="generated"/><div xmlns="http://www.w3.org/1999/xhtml"><a name="PractitionerRole_4b3b6f0f-a475-4b04-8a92-105e8ce6a7bf"> </a><p class="res-header-id"><b>Generated Narrative: PractitionerRole 4b3b6f0f-a475-4b04-8a92-105e8ce6a7bf</b></p><a name="4b3b6f0f-a475-4b04-8a92-105e8ce6a7bf"> </a><a name="hc4b3b6f0f-a475-4b04-8a92-105e8ce6a7bf"> </a><div style="display: inline-block; background-color: #d9e0e7; padding: 6px; margin: 4px; border: 1px solid #8da1b4; border-radius: 5px; line-height: 60%"><p style="margin-bottom: 0px"/><p style="margin-bottom: 0px">Profile: <a href="http://medcomfhir.dk/ig/core/2.4.0/StructureDefinition-medcom-core-practitionerrole.html">MedComCorePractitionerRole</a></p></div><p><b>practitioner</b>: <a href="Practitioner-be9f367d-a84a-4815-90a8-c83a03813fd8.html">Practitioner Mia </a></p><p><b>code</b>: <span title="Codes:{http://medcomfhir.dk/ig/terminology/CodeSystem/medcom-core-PractitionerRolesSKSadministrativ sygeplejerske}">Sygeplejerske</span></p></div>
        </text>
        <practitioner>
          <reference value="Practitioner/be9f367d-a84a-4815-90a8-c83a03813fd8"/>
        </practitioner>
        <code>
          <coding>
            <system value="http://medcomfhir.dk/ig/terminology/CodeSystem/medcom-core-PractitionerRolesSKSadministrativ"/>
            <code value="sygeplejerske"/>
          </coding>
        </code>
      </PractitionerRole>
    </resource>
  </entry>
  <entry>
    <fullUrl value="http://medcomfhir.dk/ig/homecareobservation/Practitioner/be9f367d-a84a-4815-90a8-c83a03813fd8"/>
    <resource>
      <Practitioner>
        <id value="be9f367d-a84a-4815-90a8-c83a03813fd8"/>
        <meta>
          <profile value="http://medcomfhir.dk/ig/core/StructureDefinition/medcom-core-practitioner"/>
        </meta>
        <text>
          <status value="generated"/><div xmlns="http://www.w3.org/1999/xhtml"><a name="Practitioner_be9f367d-a84a-4815-90a8-c83a03813fd8"> </a><p class="res-header-id"><b>Generated Narrative: Practitioner be9f367d-a84a-4815-90a8-c83a03813fd8</b></p><a name="be9f367d-a84a-4815-90a8-c83a03813fd8"> </a><a name="hcbe9f367d-a84a-4815-90a8-c83a03813fd8"> </a><div style="display: inline-block; background-color: #d9e0e7; padding: 6px; margin: 4px; border: 1px solid #8da1b4; border-radius: 5px; line-height: 60%"><p style="margin-bottom: 0px"/><p style="margin-bottom: 0px">Profile: <a href="http://medcomfhir.dk/ig/core/2.4.0/StructureDefinition-medcom-core-practitioner.html">MedComCorePractitioner</a></p></div><p><b>name</b>: Mia </p><p><b>telecom</b>: <a href="tel:+4505577668">+45 05577668</a></p></div>
        </text>
        <name>
          <given value="Mia"/>
        </name>
        <telecom>
          <system value="phone"/>
          <value value="+45 05577668"/>
        </telecom>
      </Practitioner>
    </resource>
  </entry>
  <entry>
    <fullUrl value="http://medcomfhir.dk/ig/homecareobservation/Organization/72cc3a2c-1dda-4b95-b50a-0f7ac19640f4"/>
    <resource>
      <Organization>
        <id value="72cc3a2c-1dda-4b95-b50a-0f7ac19640f4"/>
        <meta>
          <profile value="http://medcomfhir.dk/ig/messaging/StructureDefinition/medcom-producer-organization"/>
        </meta>
        <text>
          <status value="generated"/><div xmlns="http://www.w3.org/1999/xhtml"><a name="Organization_72cc3a2c-1dda-4b95-b50a-0f7ac19640f4"> </a><p class="res-header-id"><b>Generated Narrative: Organization 72cc3a2c-1dda-4b95-b50a-0f7ac19640f4</b></p><a name="72cc3a2c-1dda-4b95-b50a-0f7ac19640f4"> </a><a name="hc72cc3a2c-1dda-4b95-b50a-0f7ac19640f4"> </a><div style="display: inline-block; background-color: #d9e0e7; padding: 6px; margin: 4px; border: 1px solid #8da1b4; border-radius: 5px; line-height: 60%"><p style="margin-bottom: 0px"/><p style="margin-bottom: 0px">Profile: <a href="http://medcomfhir.dk/ig/messaging/3.0.0/StructureDefinition-medcom-producer-organization.html">MedComCoreProducerOrganization</a></p></div><p><b>identifier</b>: <code>https://www.gs1.org/gln</code>/5790000123117, <code>urn:oid:1.2.208.176.1.1</code>/1144561000016002, <code>http://medcomfhir.dk/ig/terminology/CodeSystem/MedComProducentID</code>/KAF</p><p><b>name</b>: Pleje og Rehabilitering</p></div>
        </text>
        <identifier>
          <system value="https://www.gs1.org/gln"/>
          <value value="5790000123117"/>
        </identifier>
        <identifier>
          <system value="urn:oid:1.2.208.176.1.1"/>
          <value value="1144561000016002"/>
        </identifier>
        <identifier>
          <system value="http://medcomfhir.dk/ig/terminology/CodeSystem/MedComProducentID"/>
          <value value="KAF"/>
        </identifier>
        <name value="Pleje og Rehabilitering"/>
      </Organization>
    </resource>
  </entry>
  <entry>
    <fullUrl value="http://medcomfhir.dk/ig/homecareobservation/Organization/d1c1fa90-2c7e-4dd7-b2e8-e40281635a98"/>
    <resource>
      <Organization>
        <id value="d1c1fa90-2c7e-4dd7-b2e8-e40281635a98"/>
        <meta>
          <profile value="http://medcomfhir.dk/ig/messaging/StructureDefinition/medcom-requesterorganization"/>
        </meta>
        <text>
          <status value="generated"/><div xmlns="http://www.w3.org/1999/xhtml"><a name="Organization_d1c1fa90-2c7e-4dd7-b2e8-e40281635a98"> </a><p class="res-header-id"><b>Generated Narrative: Organization d1c1fa90-2c7e-4dd7-b2e8-e40281635a98</b></p><a name="d1c1fa90-2c7e-4dd7-b2e8-e40281635a98"> </a><a name="hcd1c1fa90-2c7e-4dd7-b2e8-e40281635a98"> </a><div style="display: inline-block; background-color: #d9e0e7; padding: 6px; margin: 4px; border: 1px solid #8da1b4; border-radius: 5px; line-height: 60%"><p style="margin-bottom: 0px"/><p style="margin-bottom: 0px">Profile: <a href="http://medcomfhir.dk/ig/messaging/3.0.0/StructureDefinition-medcom-requesterorganization.html">MedComMessagingRequesterOrganization</a></p></div><p><b>identifier</b>: <code>https://www.gs1.org/gln</code>/5790000127092, <code>urn:oid:1.2.208.176.1.1</code>/52581000016005, <code>urn:oid:1.2.208.176.1.4</code>/061654</p><p><b>name</b>: Skødstrup Lægepraksis</p><h3>Contacts</h3><table class="grid"><tr><td style="display: none">-</td><td><b>Name</b></td></tr><tr><td style="display: none">*</td><td>OKM </td></tr></table></div>
        </text>
        <identifier>
          <system value="https://www.gs1.org/gln"/>
          <value value="5790000127092"/>
        </identifier>
        <identifier>
          <system value="urn:oid:1.2.208.176.1.1"/>
          <value value="52581000016005"/>
        </identifier>
        <identifier>
          <system value="urn:oid:1.2.208.176.1.4"/>
          <value value="061654"/>
        </identifier>
        <name value="Skødstrup Lægepraksis"/>
        <contact>
          <name>
            <given value="OKM"/>
          </name>
        </contact>
      </Organization>
    </resource>
  </entry>
  <entry>
    <fullUrl value="http://medcomfhir.dk/ig/homecareobservation/Provenance/4c845e97-04b2-40e9-ab51-4c5bf080196f"/>
    <resource>
      <Provenance>
        <id value="4c845e97-04b2-40e9-ab51-4c5bf080196f"/>
        <meta>
          <profile value="http://medcomfhir.dk/ig/messaging/StructureDefinition/medcom-messaging-provenance"/>
        </meta>
        <text>
          <status value="generated"/><div xmlns="http://www.w3.org/1999/xhtml"><a name="Provenance_4c845e97-04b2-40e9-ab51-4c5bf080196f"> </a><p class="res-header-id"><b>Generated Narrative: Provenance 4c845e97-04b2-40e9-ab51-4c5bf080196f</b></p><a name="4c845e97-04b2-40e9-ab51-4c5bf080196f"> </a><a name="hc4c845e97-04b2-40e9-ab51-4c5bf080196f"> </a><div style="display: inline-block; background-color: #d9e0e7; padding: 6px; margin: 4px; border: 1px solid #8da1b4; border-radius: 5px; line-height: 60%"><p style="margin-bottom: 0px"/><p style="margin-bottom: 0px">Profile: <a href="http://medcomfhir.dk/ig/messaging/3.0.0/StructureDefinition-medcom-messaging-provenance.html">MedComMessagingProvenance</a></p></div><p>Provenance for <a href="MessageHeader-e9f4cc68-b1b7-46b2-ba74-7cc39a914bfa.html">MessageHeader: event[x] = HomeCare Observation Message (MedComMessagingEventCodes#homecareobservation-message); definition = http://medcomfhir.dk/ig/messagedefinitions/MessageDefinition/MedComHomeCareObservationMessageDefinition|1.1</a></p><p>Summary</p><table class="grid"><tr><td>Occurrence</td><td>2023-09-13 12:24:08+0200</td></tr><tr><td>Recorded</td><td>2023-09-13 12:24:08+0200</td></tr><tr><td>Activity</td><td><span title="Codes:{http://medcomfhir.dk/ig/terminology/CodeSystem/medcom-messaging-activityCodes new-message}">A new message has been sent</span></td></tr></table><p><b>Agents</b></p><table class="grid"><tr><td><b>who</b></td></tr><tr><td><a href="Organization-72cc3a2c-1dda-4b95-b50a-0f7ac19640f4.html">Organization Pleje og Rehabilitering</a></td></tr></table></div>
        </text>
        <target>
          <reference value="MessageHeader/e9f4cc68-b1b7-46b2-ba74-7cc39a914bfa"/>
        </target>
        <occurredDateTime value="2023-09-13T12:24:08+02:00"/>
        <recorded value="2023-09-13T12:24:08+02:00"/>
        <activity>
          <coding>
            <system value="http://medcomfhir.dk/ig/terminology/CodeSystem/medcom-messaging-activityCodes"/>
            <code value="new-message"/>
          </coding>
        </activity>
        <agent>
          <who>
            <reference value="Organization/72cc3a2c-1dda-4b95-b50a-0f7ac19640f4"/>
          </who>
        </agent>
      </Provenance>
    </resource>
  </entry>
  <entry>
    <fullUrl value="http://medcomfhir.dk/ig/homecareobservation/Observation/4b8f899a-df12-4301-8287-9a77d46ded3d"/>
    <resource>
      <Observation>
        <id value="4b8f899a-df12-4301-8287-9a77d46ded3d"/>
        <meta>
          <profile value="http://medcomfhir.dk/ig/homecareobservation/StructureDefinition/medcom-homecare-observation"/>
        </meta>
        <text>
          <status value="generated"/><div xmlns="http://www.w3.org/1999/xhtml"><a name="Observation_4b8f899a-df12-4301-8287-9a77d46ded3d"> </a><p class="res-header-id"><b>Generated Narrative: Observation 4b8f899a-df12-4301-8287-9a77d46ded3d</b></p><a name="4b8f899a-df12-4301-8287-9a77d46ded3d"> </a><a name="hc4b8f899a-df12-4301-8287-9a77d46ded3d"> </a><div style="display: inline-block; background-color: #d9e0e7; padding: 6px; margin: 4px; border: 1px solid #8da1b4; border-radius: 5px; line-height: 60%"><p style="margin-bottom: 0px"/><p style="margin-bottom: 0px">Profile: <a href="StructureDefinition-medcom-homecare-observation.html">MedComHomeCareObservation</a></p></div><p><b>status</b>: Final</p><p><b>code</b>: <span title="Codes:{urn:oid:1.2.208.176.2.1 NPU04206}">U—Protein; arb.k.(proc.) = ?</span></p><p><b>subject</b>: <a href="Patient-733cef33-3626-422b-955d-d506aaa65fe1.html">Elmer (official) (no stated gender), DoB Unknown ( urn:oid:1.2.208.176.1.2#2509479989)</a></p><p><b>effective</b>: 2023-09-13 12:24:08+0200</p><p><b>value</b>: 1 +</p><p><b>interpretation</b>: <span title="Codes:{http://medcomfhir.dk/ig/terminology/CodeSystem/medcom-core-interpretation-codes NI}">Not Interpreted</span></p></div>
        </text>
        <status value="final"/>
        <code>
          <coding>
            <system value="urn:oid:1.2.208.176.2.1"/>
            <code value="NPU04206"/>
            <display value="U—Protein; arb.k.(proc.) = ?"/>
          </coding>
        </code>
        <subject>
          <reference value="Patient/733cef33-3626-422b-955d-d506aaa65fe1"/>
        </subject>
        <effectiveDateTime value="2023-09-13T12:24:08+02:00"/>
        <valueQuantity>
          <value value="1"/>
          <unit value="+"/>
        </valueQuantity>
        <interpretation>
          <coding>
            <system value="http://medcomfhir.dk/ig/terminology/CodeSystem/medcom-core-interpretation-codes"/>
            <code value="NI"/>
            <display value="Not Interpreted"/>
          </coding>
        </interpretation>
      </Observation>
    </resource>
  </entry>
  <entry>
    <fullUrl value="http://medcomfhir.dk/ig/homecareobservation/Observation/f58819ff-d727-4740-a4ef-44eefc77022e"/>
    <resource>
      <Observation>
        <id value="f58819ff-d727-4740-a4ef-44eefc77022e"/>
        <meta>
          <profile value="http://medcomfhir.dk/ig/homecareobservation/StructureDefinition/medcom-homecare-observation"/>
        </meta>
        <text>
          <status value="generated"/><div xmlns="http://www.w3.org/1999/xhtml"><a name="Observation_f58819ff-d727-4740-a4ef-44eefc77022e"> </a><p class="res-header-id"><b>Generated Narrative: Observation f58819ff-d727-4740-a4ef-44eefc77022e</b></p><a name="f58819ff-d727-4740-a4ef-44eefc77022e"> </a><a name="hcf58819ff-d727-4740-a4ef-44eefc77022e"> </a><div style="display: inline-block; background-color: #d9e0e7; padding: 6px; margin: 4px; border: 1px solid #8da1b4; border-radius: 5px; line-height: 60%"><p style="margin-bottom: 0px"/><p style="margin-bottom: 0px">Profile: <a href="StructureDefinition-medcom-homecare-observation.html">MedComHomeCareObservation</a></p></div><p><b>status</b>: Final</p><p><b>code</b>: <span title="Codes:{urn:oid:1.2.208.176.2.1 NPU21578}">U—Nitrit; arb.k.(proc.) = ?</span></p><p><b>subject</b>: <a href="Patient-733cef33-3626-422b-955d-d506aaa65fe1.html">Elmer (official) (no stated gender), DoB Unknown ( urn:oid:1.2.208.176.1.2#2509479989)</a></p><p><b>effective</b>: 2023-09-13 12:24:08+0200</p><p><b>value</b>: Negative</p><p><b>interpretation</b>: <span title="Codes:{http://medcomfhir.dk/ig/terminology/CodeSystem/medcom-core-interpretation-codes NI}">Not Interpreted</span></p></div>
        </text>
        <status value="final"/>
        <code>
          <coding>
            <system value="urn:oid:1.2.208.176.2.1"/>
            <code value="NPU21578"/>
            <display value="U—Nitrit; arb.k.(proc.) = ?"/>
          </coding>
        </code>
        <subject>
          <reference value="Patient/733cef33-3626-422b-955d-d506aaa65fe1"/>
        </subject>
        <effectiveDateTime value="2023-09-13T12:24:08+02:00"/>
        <valueString value="Negative"/>
        <interpretation>
          <coding>
            <system value="http://medcomfhir.dk/ig/terminology/CodeSystem/medcom-core-interpretation-codes"/>
            <code value="NI"/>
            <display value="Not Interpreted"/>
          </coding>
        </interpretation>
      </Observation>
    </resource>
  </entry>
  <entry>
    <fullUrl value="http://medcomfhir.dk/ig/homecareobservation/Observation/2fc2c078-825b-491d-9f8e-34926eb4f06f"/>
    <resource>
      <Observation>
        <id value="2fc2c078-825b-491d-9f8e-34926eb4f06f"/>
        <meta>
          <profile value="http://medcomfhir.dk/ig/homecareobservation/StructureDefinition/medcom-homecare-observation"/>
        </meta>
        <text>
          <status value="generated"/><div xmlns="http://www.w3.org/1999/xhtml"><a name="Observation_2fc2c078-825b-491d-9f8e-34926eb4f06f"> </a><p class="res-header-id"><b>Generated Narrative: Observation 2fc2c078-825b-491d-9f8e-34926eb4f06f</b></p><a name="2fc2c078-825b-491d-9f8e-34926eb4f06f"> </a><a name="hc2fc2c078-825b-491d-9f8e-34926eb4f06f"> </a><div style="display: inline-block; background-color: #d9e0e7; padding: 6px; margin: 4px; border: 1px solid #8da1b4; border-radius: 5px; line-height: 60%"><p style="margin-bottom: 0px"/><p style="margin-bottom: 0px">Profile: <a href="StructureDefinition-medcom-homecare-observation.html">MedComHomeCareObservation</a></p></div><p><b>status</b>: Final</p><p><b>code</b>: <span title="Codes:{urn:oid:1.2.208.176.2.1 NPU03987}">U—Leukocytter; arb.k.(proc.) = ?</span></p><p><b>subject</b>: <a href="Patient-733cef33-3626-422b-955d-d506aaa65fe1.html">Elmer (official) (no stated gender), DoB Unknown ( urn:oid:1.2.208.176.1.2#2509479989)</a></p><p><b>effective</b>: 2023-09-13 12:24:08+0200</p><p><b>value</b>: 2 +</p><p><b>interpretation</b>: <span title="Codes:{http://medcomfhir.dk/ig/terminology/CodeSystem/medcom-core-interpretation-codes NI}">Not Interpreted</span></p></div>
        </text>
        <status value="final"/>
        <code>
          <coding>
            <system value="urn:oid:1.2.208.176.2.1"/>
            <code value="NPU03987"/>
            <display value="U—Leukocytter; arb.k.(proc.) = ?"/>
          </coding>
        </code>
        <subject>
          <reference value="Patient/733cef33-3626-422b-955d-d506aaa65fe1"/>
        </subject>
        <effectiveDateTime value="2023-09-13T12:24:08+02:00"/>
        <valueQuantity>
          <value value="2"/>
          <unit value="+"/>
        </valueQuantity>
        <interpretation>
          <coding>
            <system value="http://medcomfhir.dk/ig/terminology/CodeSystem/medcom-core-interpretation-codes"/>
            <code value="NI"/>
            <display value="Not Interpreted"/>
          </coding>
        </interpretation>
      </Observation>
    </resource>
  </entry>
</Bundle>