<?xml version="1.0" encoding="UTF-8"?>

<Bundle xmlns="http://hl7.org/fhir">
  <id value="abfcb7c7-1381-4dba-b4b7-cc1c3713e515"/>
  <meta>
    <profile value="http://medcomfhir.dk/ig/carecommunication/StructureDefinition/medcom-careCommunication-message"/>
  </meta>
  <type value="message"/>
  <timestamp value="2024-11-05T20:30:00+01:00"/>
  <entry>
    <fullUrl value="https://medcomfhir.dk/ig/carecommunication/MessageHeader/28ef90de-49e5-47b4-87a4-08ffc3d4b45a"/>
    <resource>
      <MessageHeader>
        <id value="28ef90de-49e5-47b4-87a4-08ffc3d4b45a"/>
        <meta>
          <profile value="http://medcomfhir.dk/ig/carecommunication/StructureDefinition/medcom-careCommunication-messageHeader"/>
        </meta>
        <text>
          <status value="generated"/><div xmlns="http://www.w3.org/1999/xhtml"><a name="MessageHeader_28ef90de-49e5-47b4-87a4-08ffc3d4b45a"> </a><p class="res-header-id"><b>Generated Narrative: MessageHeader 28ef90de-49e5-47b4-87a4-08ffc3d4b45a</b></p><a name="28ef90de-49e5-47b4-87a4-08ffc3d4b45a"> </a><a name="hc28ef90de-49e5-47b4-87a4-08ffc3d4b45a"> </a><a name="28ef90de-49e5-47b4-87a4-08ffc3d4b45a-da-DK"> </a><p><b>event</b>: <a href="http://medcomfhir.dk/ig/terminology/1.7.0/CodeSystem-medcom-messaging-eventCodes.html#medcom-messaging-eventCodes-care-communication-message">MedComMessagingEventCodes care-communication-message</a>: Care Communication Message</p><h3>Destinations</h3><table class="grid"><tr><td style="display: none">-</td><td><b>Extension</b></td><td><b>Endpoint</b></td><td><b>Receiver</b></td></tr><tr><td style="display: none">*</td><td/><td><a href="https://sor2.sum.dsdn.dk/#id=441211000016000">https://sor2.sum.dsdn.dk/#id=441211000016000</a></td><td><a href="Organization-9cf4942a-b0ed-45ba-b13d-6a655f2c0acf.html">Organization Klinik for Ældresygdomme, AUH, Skejby</a></td></tr></table><p><b>sender</b>: <a href="Organization-f9342201-81bd-4a41-a7e5-0f2ae8823656.html">Organization Lægeklinik Ølgod</a></p><h3>Sources</h3><table class="grid"><tr><td style="display: none">-</td><td><b>Endpoint</b></td></tr><tr><td style="display: none">*</td><td><a href="https://sor2.sum.dsdn.dk/#id=1339531000016004">https://sor2.sum.dsdn.dk/#id=1339531000016004</a></td></tr></table><p><b>focus</b>: <a href="Communication-f1947b33-8b35-4cdf-9e0a-0141352f8e42.html">Communication: identifier = urn:uuid:bf3d9ae2-8c06-4769-8ea2-6f5295f6440b; status = unknown; category = Medicine</a></p><p><b>definition</b>: <code>http://medcomfhir.dk/ig/carecommunication/medcom-careCommunication-message-definition|4.0.0</code></p></div>
        </text>
        <eventCoding>
          <system value="http://medcomfhir.dk/ig/terminology/CodeSystem/medcom-messaging-eventCodes"/>
          <code value="care-communication-message"/>
        </eventCoding>
        <destination>
          <extension url="http://medcomfhir.dk/ig/messaging/StructureDefinition/medcom-messaging-destinationUseExtension">
            <valueCoding>
              <system value="http://medcomfhir.dk/ig/terminology/CodeSystem/medcom-messaging-destinationUse"/>
              <code value="primary"/>
            </valueCoding>
          </extension>
          <endpoint value="https://sor2.sum.dsdn.dk/#id=441211000016000"/>
          <receiver>
            <reference value="Organization/9cf4942a-b0ed-45ba-b13d-6a655f2c0acf"/>
          </receiver>
        </destination>
        <sender>
          <reference value="Organization/f9342201-81bd-4a41-a7e5-0f2ae8823656"/>
        </sender>
        <source>
          <endpoint value="https://sor2.sum.dsdn.dk/#id=1339531000016004"/>
        </source>
        <focus>
          <reference value="Communication/f1947b33-8b35-4cdf-9e0a-0141352f8e42"/>
        </focus>
        <definition value="http://medcomfhir.dk/ig/carecommunication/medcom-careCommunication-message-definition|4.0.0"/>
      </MessageHeader>
    </resource>
  </entry>
  <entry>
    <fullUrl value="https://medcomfhir.dk/ig/carecommunication/Patient/442804e5-2f1e-4a73-b1b9-a3a0eaff1849"/>
    <resource>
      <Patient>
        <id value="442804e5-2f1e-4a73-b1b9-a3a0eaff1849"/>
        <meta>
          <profile value="http://medcomfhir.dk/ig/core/StructureDefinition/medcom-core-patient"/>
        </meta>
        <text>
          <status value="generated"/><div xmlns="http://www.w3.org/1999/xhtml"><a name="Patient_442804e5-2f1e-4a73-b1b9-a3a0eaff1849"> </a><p class="res-header-id"><b>Generated Narrative: Patient 442804e5-2f1e-4a73-b1b9-a3a0eaff1849</b></p><a name="442804e5-2f1e-4a73-b1b9-a3a0eaff1849"> </a><a name="hc442804e5-2f1e-4a73-b1b9-a3a0eaff1849"> </a><a name="442804e5-2f1e-4a73-b1b9-a3a0eaff1849-da-DK"> </a><p style="border: 1px #661aff solid; background-color: #e6e6ff; padding: 10px;">Peter null (official) Male, DoB Unknown ( urn:oid:1.2.208.176.1.6.1.3.177#1206550VK9)</p><hr/></div>
        </text>
        <identifier>
          <system value="urn:oid:1.2.208.176.1.6.1.3.177"/>
          <value value="1206550VK9"/>
        </identifier>
        <name>
          <use value="official"/>
          <family>
            <extension url="http://hl7.org/fhir/StructureDefinition/data-absent-reason">
              <valueCode value="unknown"/>
            </extension>
          </family>
          <given value="Peter"/>
        </name>
        <gender value="male"/>
      </Patient>
    </resource>
  </entry>
  <entry>
    <fullUrl value="https://medcomfhir.dk/ig/carecommunication/Communication/f1947b33-8b35-4cdf-9e0a-0141352f8e42"/>
    <resource>
      <Communication>
        <id value="f1947b33-8b35-4cdf-9e0a-0141352f8e42"/>
        <meta>
          <profile value="http://medcomfhir.dk/ig/carecommunication/StructureDefinition/medcom-careCommunication-communication"/>
        </meta>
        <text>
          <status value="extensions"/><div xmlns="http://www.w3.org/1999/xhtml"><a name="Communication_f1947b33-8b35-4cdf-9e0a-0141352f8e42"> </a><p class="res-header-id"><b>Generated Narrative: Communication f1947b33-8b35-4cdf-9e0a-0141352f8e42</b></p><a name="f1947b33-8b35-4cdf-9e0a-0141352f8e42"> </a><a name="hcf1947b33-8b35-4cdf-9e0a-0141352f8e42"> </a><a name="f1947b33-8b35-4cdf-9e0a-0141352f8e42-da-DK"> </a><p><b>identifier</b>: urn:uuid:bf3d9ae2-8c06-4769-8ea2-6f5295f6440b</p><p><b>status</b>: Unknown</p><p><b>category</b>: <span title="Codes:{http://medcomfhir.dk/ig/terminology/CodeSystem/medcom-careCommunication-categoryCodes medicine}">Medicine</span></p><p><b>subject</b>: <a href="Patient-442804e5-2f1e-4a73-b1b9-a3a0eaff1849.html">Peter null (official) Male, DoB Unknown ( urn:oid:1.2.208.176.1.6.1.3.177#1206550VK9)</a></p><blockquote><p><b>payload</b></p><p><b>DateTimeExtension</b>: 2024-11-05 20:30:00+0100</p><p><b>IdentifierExtension</b>: urn:uuid:12ff8a10-36b0-43d7-8f6d-61449fe3a1ec</p><p><b>PractitionerExtension</b>: <a href="PractitionerRole-d77f2b26-2d83-4e31-b320-9f581c51c5dd.html">PractitionerRole Beskæftigelsesvejleder</a></p><p><b>ContactExtension</b>: <a href="tel:+4512345789">+4512345789</a></p><p><b>content</b>: Til rette vedkommende. Vi har desværre ikke anden information end et fornavn. Pt. oplyser, at have være i tilknytning til jer. Kan I bekræfte det? På forhånd tak. Hilsen Michael</p></blockquote></div>
        </text>
        <identifier>
          <value value="urn:uuid:bf3d9ae2-8c06-4769-8ea2-6f5295f6440b"/>
        </identifier>
        <status value="unknown"/>
        <category>
          <coding>
            <system value="http://medcomfhir.dk/ig/terminology/CodeSystem/medcom-careCommunication-categoryCodes"/>
            <code value="medicine"/>
          </coding>
        </category>
        <subject>
          <reference value="Patient/442804e5-2f1e-4a73-b1b9-a3a0eaff1849"/>
        </subject>
        <payload>
          <extension url="http://medcomfhir.dk/ig/core/StructureDefinition/medcom-core-datetime-extension">
            <valueDateTime value="2024-11-05T20:30:00+01:00"/>
          </extension>
          <extension url="http://medcomfhir.dk/ig/core/StructureDefinition/medcom-core-identifier-extension">
            <valueIdentifier>
              <value value="urn:uuid:12ff8a10-36b0-43d7-8f6d-61449fe3a1ec"/>
              <assigner>
                <reference value="Organization/9cf4942a-b0ed-45ba-b13d-6a655f2c0acf"/>
              </assigner>
            </valueIdentifier>
          </extension>
          <extension url="http://medcomfhir.dk/ig/core/StructureDefinition/medcom-core-practitioner-extension">
            <valueReference>
              <reference value="PractitionerRole/d77f2b26-2d83-4e31-b320-9f581c51c5dd"/>
            </valueReference>
          </extension>
          <extension url="http://medcomfhir.dk/ig/core/StructureDefinition/medcom-core-contact-extension">
            <valueContactPoint>
              <system value="phone"/>
              <value value="+4512345789"/>
            </valueContactPoint>
          </extension>
          <contentString value="Til rette vedkommende. Vi har desværre ikke anden information end et fornavn. Pt. oplyser, at have være i tilknytning til jer. Kan I bekræfte det? På forhånd tak. Hilsen Michael"/>
        </payload>
      </Communication>
    </resource>
  </entry>
  <entry>
    <fullUrl value="https://medcomfhir.dk/ig/carecommunication/PractitionerRole/d77f2b26-2d83-4e31-b320-9f581c51c5dd"/>
    <resource>
      <PractitionerRole>
        <id value="d77f2b26-2d83-4e31-b320-9f581c51c5dd"/>
        <meta>
          <profile value="http://medcomfhir.dk/ig/core/StructureDefinition/medcom-core-practitionerrole"/>
        </meta>
        <text>
          <status value="generated"/><div xmlns="http://www.w3.org/1999/xhtml"><a name="PractitionerRole_d77f2b26-2d83-4e31-b320-9f581c51c5dd"> </a><p class="res-header-id"><b>Generated Narrative: PractitionerRole d77f2b26-2d83-4e31-b320-9f581c51c5dd</b></p><a name="d77f2b26-2d83-4e31-b320-9f581c51c5dd"> </a><a name="hcd77f2b26-2d83-4e31-b320-9f581c51c5dd"> </a><a name="d77f2b26-2d83-4e31-b320-9f581c51c5dd-da-DK"> </a><p><b>practitioner</b>: <a href="Practitioner-5d923318-8e37-4fe5-97d3-de93682aed6d.html">Practitioner Michael Burns </a></p><p><b>code</b>: <span title="Codes:{http://medcomfhir.dk/ig/terminology/CodeSystem/medcom-core-PractitionerRolesSKSadministrativ beskaeftigelsesvejleder}">Beskæftigelsesvejleder</span></p></div>
        </text>
        <practitioner>
          <reference value="Practitioner/5d923318-8e37-4fe5-97d3-de93682aed6d"/>
        </practitioner>
        <code>
          <coding>
            <system value="http://medcomfhir.dk/ig/terminology/CodeSystem/medcom-core-PractitionerRolesSKSadministrativ"/>
            <code value="beskaeftigelsesvejleder"/>
          </coding>
        </code>
      </PractitionerRole>
    </resource>
  </entry>
  <entry>
    <fullUrl value="https://medcomfhir.dk/ig/carecommunication/Practitioner/5d923318-8e37-4fe5-97d3-de93682aed6d"/>
    <resource>
      <Practitioner>
        <id value="5d923318-8e37-4fe5-97d3-de93682aed6d"/>
        <meta>
          <profile value="http://medcomfhir.dk/ig/core/StructureDefinition/medcom-core-practitioner"/>
        </meta>
        <text>
          <status value="generated"/><div xmlns="http://www.w3.org/1999/xhtml"><a name="Practitioner_5d923318-8e37-4fe5-97d3-de93682aed6d"> </a><p class="res-header-id"><b>Generated Narrative: Practitioner 5d923318-8e37-4fe5-97d3-de93682aed6d</b></p><a name="5d923318-8e37-4fe5-97d3-de93682aed6d"> </a><a name="hc5d923318-8e37-4fe5-97d3-de93682aed6d"> </a><a name="5d923318-8e37-4fe5-97d3-de93682aed6d-da-DK"> </a><p><b>name</b>: Michael Burns </p></div>
        </text>
        <name>
          <family value="Burns"/>
          <given value="Michael"/>
        </name>
      </Practitioner>
    </resource>
  </entry>
  <entry>
    <fullUrl value="https://medcomfhir.dk/ig/carecommunication/Organization/9cf4942a-b0ed-45ba-b13d-6a655f2c0acf"/>
    <resource>
      <Organization>
        <id value="9cf4942a-b0ed-45ba-b13d-6a655f2c0acf"/>
        <meta>
          <profile value="http://medcomfhir.dk/ig/messaging/StructureDefinition/medcom-messaging-organization"/>
        </meta>
        <text>
          <status value="generated"/><div xmlns="http://www.w3.org/1999/xhtml"><a name="Organization_9cf4942a-b0ed-45ba-b13d-6a655f2c0acf"> </a><p class="res-header-id"><b>Generated Narrative: Organization 9cf4942a-b0ed-45ba-b13d-6a655f2c0acf</b></p><a name="9cf4942a-b0ed-45ba-b13d-6a655f2c0acf"> </a><a name="hc9cf4942a-b0ed-45ba-b13d-6a655f2c0acf"> </a><a name="9cf4942a-b0ed-45ba-b13d-6a655f2c0acf-da-DK"> </a><p><b>identifier</b>: <code>https://www.gs1.org/gln</code>/5790001987244, <code>urn:oid:1.2.208.176.1.1</code>/441211000016000</p><p><b>name</b>: Klinik for Ældresygdomme, AUH, Skejby</p></div>
        </text>
        <identifier>
          <system value="https://www.gs1.org/gln"/>
          <value value="5790001987244"/>
        </identifier>
        <identifier>
          <system value="urn:oid:1.2.208.176.1.1"/>
          <value value="441211000016000"/>
        </identifier>
        <name value="Klinik for Ældresygdomme, AUH, Skejby"/>
      </Organization>
    </resource>
  </entry>
  <entry>
    <fullUrl value="https://medcomfhir.dk/ig/carecommunication/Organization/f9342201-81bd-4a41-a7e5-0f2ae8823656"/>
    <resource>
      <Organization>
        <id value="f9342201-81bd-4a41-a7e5-0f2ae8823656"/>
        <meta>
          <profile value="http://medcomfhir.dk/ig/messaging/StructureDefinition/medcom-messaging-organization"/>
        </meta>
        <text>
          <status value="generated"/><div xmlns="http://www.w3.org/1999/xhtml"><a name="Organization_f9342201-81bd-4a41-a7e5-0f2ae8823656"> </a><p class="res-header-id"><b>Generated Narrative: Organization f9342201-81bd-4a41-a7e5-0f2ae8823656</b></p><a name="f9342201-81bd-4a41-a7e5-0f2ae8823656"> </a><a name="hcf9342201-81bd-4a41-a7e5-0f2ae8823656"> </a><a name="f9342201-81bd-4a41-a7e5-0f2ae8823656-da-DK"> </a><p><b>identifier</b>: <code>https://www.gs1.org/gln</code>/5790002626814, <code>urn:oid:1.2.208.176.1.1</code>/1339531000016004</p><p><b>name</b>: Lægeklinik Ølgod</p></div>
        </text>
        <identifier>
          <system value="https://www.gs1.org/gln"/>
          <value value="5790002626814"/>
        </identifier>
        <identifier>
          <system value="urn:oid:1.2.208.176.1.1"/>
          <value value="1339531000016004"/>
        </identifier>
        <name value="Lægeklinik Ølgod"/>
      </Organization>
    </resource>
  </entry>
  <entry>
    <fullUrl value="https://medcomfhir.dk/ig/carecommunication/Provenance/8263b00b-99d4-4899-add4-dc5f27515e7c"/>
    <resource>
      <Provenance>
        <id value="8263b00b-99d4-4899-add4-dc5f27515e7c"/>
        <meta>
          <profile value="http://medcomfhir.dk/ig/carecommunication/StructureDefinition/medcom-careCommunication-provenance"/>
        </meta>
        <text>
          <status value="generated"/><div xmlns="http://www.w3.org/1999/xhtml"><a name="Provenance_8263b00b-99d4-4899-add4-dc5f27515e7c"> </a><p class="res-header-id"><b>Generated Narrative: Provenance 8263b00b-99d4-4899-add4-dc5f27515e7c</b></p><a name="8263b00b-99d4-4899-add4-dc5f27515e7c"> </a><a name="hc8263b00b-99d4-4899-add4-dc5f27515e7c"> </a><a name="8263b00b-99d4-4899-add4-dc5f27515e7c-da-DK"> </a><p>Provenance for <a href="MessageHeader-28ef90de-49e5-47b4-87a4-08ffc3d4b45a.html">MessageHeader: event[x] = Care Communication Message (MedComMessagingEventCodes#care-communication-message); definition = http://medcomfhir.dk/ig/carecommunication/medcom-careCommunication-message-definition|4.0.0</a></p><p>Summary</p><table class="grid"><tr><td>Occurrence</td><td>2024-11-05 20:30:00+0100</td></tr><tr><td>Recorded</td><td>2024-11-05 20:30:00+0100</td></tr><tr><td>Activity</td><td><span title="Codes:{http://medcomfhir.dk/ig/terminology/CodeSystem/medcom-messaging-activityCodes new-message}">A new message has been sent</span></td></tr></table><p><b>Agents</b></p><table class="grid"><tr><td><b>who</b></td></tr><tr><td><a href="Organization-9cf4942a-b0ed-45ba-b13d-6a655f2c0acf.html">Organization Klinik for Ældresygdomme, AUH, Skejby</a></td></tr></table></div>
        </text>
        <target>
          <reference value="MessageHeader/28ef90de-49e5-47b4-87a4-08ffc3d4b45a"/>
        </target>
        <occurredDateTime value="2024-11-05T20:30:00+01:00"/>
        <recorded value="2024-11-05T20:30:00+01:00"/>
        <activity>
          <coding>
            <system value="http://medcomfhir.dk/ig/terminology/CodeSystem/medcom-messaging-activityCodes"/>
            <code value="new-message"/>
          </coding>
        </activity>
        <agent>
          <who>
            <reference value="Organization/9cf4942a-b0ed-45ba-b13d-6a655f2c0acf"/>
          </who>
        </agent>
        <entity>
          <role value="source"/>
          <what>
            <identifier>
              <value value="urn:uuid:12ff8a10-36b0-43d7-8f6d-61449fe3a1ec"/>
            </identifier>
          </what>
        </entity>
      </Provenance>
    </resource>
  </entry>
</Bundle>