<?xml version="1.0" encoding="UTF-8"?>

<Bundle xmlns="http://hl7.org/fhir">
  <id value="aca3d03a-febd-4b88-ad53-ac1bc36da615"/>
  <meta>
    <profile value="http://medcomfhir.dk/ig/carecommunication/StructureDefinition/medcom-careCommunication-message"/>
  </meta>
  <type value="message"/>
  <timestamp value="2024-09-11T15:20:00+01:00"/>
  <entry>
    <fullUrl value="https://medcomfhir.dk/ig/carecommunication/MessageHeader/5a663fe8-c361-411d-876d-4f6b06749e59"/>
    <resource>
      <MessageHeader>
        <id value="5a663fe8-c361-411d-876d-4f6b06749e59"/>
        <meta>
          <profile value="http://medcomfhir.dk/ig/carecommunication/StructureDefinition/medcom-careCommunication-messageHeader"/>
        </meta>
        <text>
          <status value="generated"/><div xmlns="http://www.w3.org/1999/xhtml"><a name="MessageHeader_5a663fe8-c361-411d-876d-4f6b06749e59"> </a><p class="res-header-id"><b>Generated Narrative: MessageHeader 5a663fe8-c361-411d-876d-4f6b06749e59</b></p><a name="5a663fe8-c361-411d-876d-4f6b06749e59"> </a><a name="hc5a663fe8-c361-411d-876d-4f6b06749e59"> </a><a name="5a663fe8-c361-411d-876d-4f6b06749e59-da-DK"> </a><p><b>event</b>: <a href="http://medcomfhir.dk/ig/terminology/1.7.0/CodeSystem-medcom-messaging-eventCodes.html#medcom-messaging-eventCodes-care-communication-message">MedComMessagingEventCodes</a> care-communication-message: Care Communication Message</p><h3>Destinations</h3><table class="grid"><tr><td style="display: none">-</td><td><b>Extension</b></td><td><b>Endpoint</b></td><td><b>Receiver</b></td></tr><tr><td style="display: none">*</td><td/><td><a href="https://sor2.sum.dsdn.dk/#id=328081000016004">https://sor2.sum.dsdn.dk/#id=328081000016004</a></td><td><a href="Organization-cf3b8736-ffca-48a1-b2e7-550b5c503be8.html">Organization Hjemmesygeplejen, Aalborg kommune</a></td></tr></table><p><b>sender</b>: <a href="Organization-e640191b-a64c-4d05-ab28-285b4e91a816.html">Organization Lægeklinik Ølgod</a></p><h3>Sources</h3><table class="grid"><tr><td style="display: none">-</td><td><b>Endpoint</b></td></tr><tr><td style="display: none">*</td><td><a href="https://sor2.sum.dsdn.dk/#id=1339531000016004">https://sor2.sum.dsdn.dk/#id=1339531000016004</a></td></tr></table><p><b>focus</b>: <a href="Communication-38f751db-339c-46a6-a10d-cb88f72b2150.html">Communication: identifier = urn:uuid:5fdc8520-7a2f-497c-97ed-fcca13f12f8b; status = unknown; category = Examination Results; topic = </a></p><p><b>definition</b>: <code>http://medcomfhir.dk/ig/carecommunication/medcom-careCommunication-message-definition|4.0.0</code></p></div>
        </text>
        <eventCoding>
          <system value="http://medcomfhir.dk/ig/terminology/CodeSystem/medcom-messaging-eventCodes"/>
          <code value="care-communication-message"/>
        </eventCoding>
        <destination>
          <extension url="http://medcomfhir.dk/ig/messaging/StructureDefinition/medcom-messaging-destinationUseExtension">
            <valueCoding>
              <system value="http://medcomfhir.dk/ig/terminology/CodeSystem/medcom-messaging-destinationUse"/>
              <code value="primary"/>
            </valueCoding>
          </extension>
          <endpoint value="https://sor2.sum.dsdn.dk/#id=328081000016004"/>
          <receiver>
            <reference value="Organization/cf3b8736-ffca-48a1-b2e7-550b5c503be8"/>
          </receiver>
        </destination>
        <sender>
          <reference value="Organization/e640191b-a64c-4d05-ab28-285b4e91a816"/>
        </sender>
        <source>
          <endpoint value="https://sor2.sum.dsdn.dk/#id=1339531000016004"/>
        </source>
        <focus>
          <reference value="Communication/38f751db-339c-46a6-a10d-cb88f72b2150"/>
        </focus>
        <definition value="http://medcomfhir.dk/ig/carecommunication/medcom-careCommunication-message-definition|4.0.0"/>
      </MessageHeader>
    </resource>
  </entry>
  <entry>
    <fullUrl value="https://medcomfhir.dk/ig/carecommunication/Patient/8d7f4ef8-ac79-4b7d-b9e7-b769471221b2"/>
    <resource>
      <Patient>
        <id value="8d7f4ef8-ac79-4b7d-b9e7-b769471221b2"/>
        <meta>
          <profile value="http://medcomfhir.dk/ig/core/StructureDefinition/medcom-core-patient"/>
        </meta>
        <text>
          <status value="generated"/><div xmlns="http://www.w3.org/1999/xhtml"><a name="Patient_8d7f4ef8-ac79-4b7d-b9e7-b769471221b2"> </a><p class="res-header-id"><b>Generated Narrative: Patient 8d7f4ef8-ac79-4b7d-b9e7-b769471221b2</b></p><a name="8d7f4ef8-ac79-4b7d-b9e7-b769471221b2"> </a><a name="hc8d7f4ef8-ac79-4b7d-b9e7-b769471221b2"> </a><a name="8d7f4ef8-ac79-4b7d-b9e7-b769471221b2-da-DK"> </a><p style="border: 1px #661aff solid; background-color: #e6e6ff; padding: 10px;">Peter Hansen (official) (no stated gender), DoB Unknown ( urn:oid:1.2.208.176.1.6.1.1#0703921VJ5)</p><hr/></div>
        </text>
        <identifier>
          <system value="urn:oid:1.2.208.176.1.6.1.1"/>
          <value value="0703921VJ5"/>
        </identifier>
        <name>
          <use value="official"/>
          <family value="Hansen"/>
          <given value="Peter"/>
        </name>
      </Patient>
    </resource>
  </entry>
  <entry>
    <fullUrl value="https://medcomfhir.dk/ig/carecommunication/Communication/38f751db-339c-46a6-a10d-cb88f72b2150"/>
    <resource>
      <Communication>
        <id value="38f751db-339c-46a6-a10d-cb88f72b2150"/>
        <meta>
          <profile value="http://medcomfhir.dk/ig/carecommunication/StructureDefinition/medcom-careCommunication-communication"/>
        </meta>
        <text>
          <status value="generated"/><div xmlns="http://www.w3.org/1999/xhtml"><a name="Communication_38f751db-339c-46a6-a10d-cb88f72b2150"> </a><p class="res-header-id"><b>Generated Narrative: Communication 38f751db-339c-46a6-a10d-cb88f72b2150</b></p><a name="38f751db-339c-46a6-a10d-cb88f72b2150"> </a><a name="hc38f751db-339c-46a6-a10d-cb88f72b2150"> </a><a name="38f751db-339c-46a6-a10d-cb88f72b2150-da-DK"> </a><p><b>identifier</b>: urn:uuid:5fdc8520-7a2f-497c-97ed-fcca13f12f8b</p><p><b>status</b>: Unknown</p><p><b>category</b>: <span title="Codes:{http://medcomfhir.dk/ig/terminology/CodeSystem/medcom-careCommunication-categoryCodes examination-results}">Examination Results</span></p><p><b>subject</b>: <a href="Patient-8d7f4ef8-ac79-4b7d-b9e7-b769471221b2.html">Peter Hansen (official) (no stated gender), DoB Unknown ( urn:oid:1.2.208.176.1.6.1.1#0703921VJ5)</a></p><p><b>topic</b>: <span title="Codes:">Resultater fra hjemmesygeplejen</span></p><blockquote><p><b>payload</b></p><p><b>content</b>: Til rette vedkommende. Hermed fremsendes undersøgelsesresultater fra seneste besøg af hjemmesygeplejen..... Hilsen Michael, sygeplejerske.</p></blockquote></div>
        </text>
        <identifier>
          <value value="urn:uuid:5fdc8520-7a2f-497c-97ed-fcca13f12f8b"/>
        </identifier>
        <status value="unknown"/>
        <category>
          <coding>
            <system value="http://medcomfhir.dk/ig/terminology/CodeSystem/medcom-careCommunication-categoryCodes"/>
            <code value="examination-results"/>
          </coding>
        </category>
        <subject>
          <reference value="Patient/8d7f4ef8-ac79-4b7d-b9e7-b769471221b2"/>
        </subject>
        <topic>
          <text value="Resultater fra hjemmesygeplejen"/>
        </topic>
        <payload>
          <extension url="http://medcomfhir.dk/ig/core/StructureDefinition/medcom-core-datetime-extension">
            <valueDateTime value="2024-09-11T15:20:00+01:00"/>
          </extension>
          <extension url="http://medcomfhir.dk/ig/core/StructureDefinition/medcom-core-identifier-extension">
            <valueIdentifier>
              <value value="urn:uuid:c75a51cf-dab7-4bf9-9b13-b81700c78b05"/>
              <assigner>
                <reference value="Organization/cf3b8736-ffca-48a1-b2e7-550b5c503be8"/>
              </assigner>
            </valueIdentifier>
          </extension>
          <extension url="http://medcomfhir.dk/ig/core/StructureDefinition/medcom-core-practitioner-extension">
            <valueReference>
              <reference value="PractitionerRole/68f7756d-b5f0-47db-924b-8bf0f6864b9e"/>
            </valueReference>
          </extension>
          <extension url="http://medcomfhir.dk/ig/core/StructureDefinition/medcom-core-contact-extension">
            <valueContactPoint>
              <system value="phone"/>
              <value value="004523232323"/>
            </valueContactPoint>
          </extension>
          <contentString value="Til rette vedkommende. Hermed fremsendes undersøgelsesresultater fra seneste besøg af hjemmesygeplejen..... Hilsen Michael, sygeplejerske."/>
        </payload>
      </Communication>
    </resource>
  </entry>
  <entry>
    <fullUrl value="https://medcomfhir.dk/ig/carecommunication/PractitionerRole/68f7756d-b5f0-47db-924b-8bf0f6864b9e"/>
    <resource>
      <PractitionerRole>
        <id value="68f7756d-b5f0-47db-924b-8bf0f6864b9e"/>
        <meta>
          <profile value="http://medcomfhir.dk/ig/core/StructureDefinition/medcom-core-practitionerrole"/>
        </meta>
        <text>
          <status value="generated"/><div xmlns="http://www.w3.org/1999/xhtml"><a name="PractitionerRole_68f7756d-b5f0-47db-924b-8bf0f6864b9e"> </a><p class="res-header-id"><b>Generated Narrative: PractitionerRole 68f7756d-b5f0-47db-924b-8bf0f6864b9e</b></p><a name="68f7756d-b5f0-47db-924b-8bf0f6864b9e"> </a><a name="hc68f7756d-b5f0-47db-924b-8bf0f6864b9e"> </a><a name="68f7756d-b5f0-47db-924b-8bf0f6864b9e-da-DK"> </a><p><b>practitioner</b>: <a href="Practitioner-264a24ad-ef78-4289-987a-3f6dbc75ec01.html">Practitioner Michael Magnus Burns </a></p><p><b>code</b>: <span title="Codes:{http://medcomfhir.dk/ig/terminology/CodeSystem/medcom-core-PractitionerRolesSKSadministrativ sygeplejerske}">Sygeplejerske</span></p></div>
        </text>
        <practitioner>
          <reference value="Practitioner/264a24ad-ef78-4289-987a-3f6dbc75ec01"/>
        </practitioner>
        <code>
          <coding>
            <system value="http://medcomfhir.dk/ig/terminology/CodeSystem/medcom-core-PractitionerRolesSKSadministrativ"/>
            <code value="sygeplejerske"/>
          </coding>
        </code>
      </PractitionerRole>
    </resource>
  </entry>
  <entry>
    <fullUrl value="https://medcomfhir.dk/ig/carecommunication/Practitioner/264a24ad-ef78-4289-987a-3f6dbc75ec01"/>
    <resource>
      <Practitioner>
        <id value="264a24ad-ef78-4289-987a-3f6dbc75ec01"/>
        <meta>
          <profile value="http://medcomfhir.dk/ig/core/StructureDefinition/medcom-core-practitioner"/>
        </meta>
        <text>
          <status value="generated"/><div xmlns="http://www.w3.org/1999/xhtml"><a name="Practitioner_264a24ad-ef78-4289-987a-3f6dbc75ec01"> </a><p class="res-header-id"><b>Generated Narrative: Practitioner 264a24ad-ef78-4289-987a-3f6dbc75ec01</b></p><a name="264a24ad-ef78-4289-987a-3f6dbc75ec01"> </a><a name="hc264a24ad-ef78-4289-987a-3f6dbc75ec01"> </a><a name="264a24ad-ef78-4289-987a-3f6dbc75ec01-da-DK"> </a><p><b>name</b>: Michael Magnus Burns </p></div>
        </text>
        <name>
          <family value="Burns"/>
          <given value="Michael"/>
          <given value="Magnus"/>
        </name>
      </Practitioner>
    </resource>
  </entry>
  <entry>
    <fullUrl value="https://medcomfhir.dk/ig/carecommunication/Organization/cf3b8736-ffca-48a1-b2e7-550b5c503be8"/>
    <resource>
      <Organization>
        <id value="cf3b8736-ffca-48a1-b2e7-550b5c503be8"/>
        <meta>
          <profile value="http://medcomfhir.dk/ig/messaging/StructureDefinition/medcom-messaging-organization"/>
        </meta>
        <text>
          <status value="generated"/><div xmlns="http://www.w3.org/1999/xhtml"><a name="Organization_cf3b8736-ffca-48a1-b2e7-550b5c503be8"> </a><p class="res-header-id"><b>Generated Narrative: Organization cf3b8736-ffca-48a1-b2e7-550b5c503be8</b></p><a name="cf3b8736-ffca-48a1-b2e7-550b5c503be8"> </a><a name="hccf3b8736-ffca-48a1-b2e7-550b5c503be8"> </a><a name="cf3b8736-ffca-48a1-b2e7-550b5c503be8-da-DK"> </a><p><b>identifier</b>: <code>https://www.gs1.org/gln</code>/5790000121786, <code>urn:oid:1.2.208.176.1.1</code>/328081000016004</p><p><b>name</b>: Hjemmesygeplejen, Aalborg kommune</p></div>
        </text>
        <identifier>
          <system value="https://www.gs1.org/gln"/>
          <value value="5790000121786"/>
        </identifier>
        <identifier>
          <system value="urn:oid:1.2.208.176.1.1"/>
          <value value="328081000016004"/>
        </identifier>
        <name value="Hjemmesygeplejen, Aalborg kommune"/>
      </Organization>
    </resource>
  </entry>
  <entry>
    <fullUrl value="https://medcomfhir.dk/ig/carecommunication/Organization/e640191b-a64c-4d05-ab28-285b4e91a816"/>
    <resource>
      <Organization>
        <id value="e640191b-a64c-4d05-ab28-285b4e91a816"/>
        <meta>
          <profile value="http://medcomfhir.dk/ig/messaging/StructureDefinition/medcom-messaging-organization"/>
        </meta>
        <text>
          <status value="generated"/><div xmlns="http://www.w3.org/1999/xhtml"><a name="Organization_e640191b-a64c-4d05-ab28-285b4e91a816"> </a><p class="res-header-id"><b>Generated Narrative: Organization e640191b-a64c-4d05-ab28-285b4e91a816</b></p><a name="e640191b-a64c-4d05-ab28-285b4e91a816"> </a><a name="hce640191b-a64c-4d05-ab28-285b4e91a816"> </a><a name="e640191b-a64c-4d05-ab28-285b4e91a816-da-DK"> </a><p><b>identifier</b>: <code>https://www.gs1.org/gln</code>/5790002626814, <code>urn:oid:1.2.208.176.1.1</code>/1339531000016004</p><p><b>name</b>: Lægeklinik Ølgod</p></div>
        </text>
        <identifier>
          <system value="https://www.gs1.org/gln"/>
          <value value="5790002626814"/>
        </identifier>
        <identifier>
          <system value="urn:oid:1.2.208.176.1.1"/>
          <value value="1339531000016004"/>
        </identifier>
        <name value="Lægeklinik Ølgod"/>
      </Organization>
    </resource>
  </entry>
  <entry>
    <fullUrl value="https://medcomfhir.dk/ig/carecommunication/Provenance/a0c5b890-3c4c-4165-871c-e3fdf2608b47"/>
    <resource>
      <Provenance>
        <id value="a0c5b890-3c4c-4165-871c-e3fdf2608b47"/>
        <meta>
          <profile value="http://medcomfhir.dk/ig/carecommunication/StructureDefinition/medcom-careCommunication-provenance"/>
        </meta>
        <text>
          <status value="generated"/><div xmlns="http://www.w3.org/1999/xhtml"><a name="Provenance_a0c5b890-3c4c-4165-871c-e3fdf2608b47"> </a><p class="res-header-id"><b>Generated Narrative: Provenance a0c5b890-3c4c-4165-871c-e3fdf2608b47</b></p><a name="a0c5b890-3c4c-4165-871c-e3fdf2608b47"> </a><a name="hca0c5b890-3c4c-4165-871c-e3fdf2608b47"> </a><a name="a0c5b890-3c4c-4165-871c-e3fdf2608b47-da-DK"> </a><p>Provenance for <a href="MessageHeader-5a663fe8-c361-411d-876d-4f6b06749e59.html">MessageHeader: event[x] = Care Communication Message (MedComMessagingEventCodes#care-communication-message); definition = http://medcomfhir.dk/ig/carecommunication/medcom-careCommunication-message-definition|4.0.0</a></p><p>Summary</p><table class="grid"><tr><td>Occurrence</td><td>2024-09-11 15:20:00+0100</td></tr><tr><td>Recorded</td><td>2024-09-11 15:20:00+0100</td></tr><tr><td>Activity</td><td><span title="Codes:{http://medcomfhir.dk/ig/terminology/CodeSystem/medcom-messaging-activityCodes new-message}">A new message has been sent</span></td></tr></table><p><b>Agents</b></p><table class="grid"><tr><td><b>who</b></td></tr><tr><td><a href="Organization-cf3b8736-ffca-48a1-b2e7-550b5c503be8.html">Organization Hjemmesygeplejen, Aalborg kommune</a></td></tr></table></div>
        </text>
        <target>
          <reference value="MessageHeader/5a663fe8-c361-411d-876d-4f6b06749e59"/>
        </target>
        <occurredDateTime value="2024-09-11T15:20:00+01:00"/>
        <recorded value="2024-09-11T15:20:00+01:00"/>
        <activity>
          <coding>
            <system value="http://medcomfhir.dk/ig/terminology/CodeSystem/medcom-messaging-activityCodes"/>
            <code value="new-message"/>
          </coding>
        </activity>
        <agent>
          <who>
            <reference value="Organization/cf3b8736-ffca-48a1-b2e7-550b5c503be8"/>
          </who>
        </agent>
        <entity>
          <role value="source"/>
          <what>
            <identifier>
              <value value="urn:uuid:c75a51cf-dab7-4bf9-9b13-b81700c78b05"/>
            </identifier>
          </what>
        </entity>
      </Provenance>
    </resource>
  </entry>
</Bundle>