{
  "resourceType" : "Bundle",
  "id" : "260a3cc1-38eb-454a-a57b-9e32eabb54a3",
  "meta" : {
    "profile" : ["http://medcomfhir.dk/ig/carecommunication/StructureDefinition/medcom-careCommunication-message"]
  },
  "type" : "message",
  "timestamp" : "2024-08-27T15:20:00+01:00",
  "entry" : [{
    "fullUrl" : "https://medcomfhir.dk/ig/carecommunication/MessageHeader/6550cb10-06e1-44fa-a66d-72f3f60c7c55",
    "resource" : {
      "resourceType" : "MessageHeader",
      "id" : "6550cb10-06e1-44fa-a66d-72f3f60c7c55",
      "meta" : {
        "profile" : ["http://medcomfhir.dk/ig/carecommunication/StructureDefinition/medcom-careCommunication-messageHeader"]
      },
      "text" : {
        "status" : "generated",
        "div" : "<div xmlns=\"http://www.w3.org/1999/xhtml\"><a name=\"MessageHeader_6550cb10-06e1-44fa-a66d-72f3f60c7c55\"> </a><p class=\"res-header-id\"><b>Generated Narrative: MessageHeader 6550cb10-06e1-44fa-a66d-72f3f60c7c55</b></p><a name=\"6550cb10-06e1-44fa-a66d-72f3f60c7c55\"> </a><a name=\"hc6550cb10-06e1-44fa-a66d-72f3f60c7c55\"> </a><a name=\"6550cb10-06e1-44fa-a66d-72f3f60c7c55-da-DK\"> </a><p><b>event</b>: <a href=\"http://medcomfhir.dk/ig/terminology/1.7.0/CodeSystem-medcom-messaging-eventCodes.html#medcom-messaging-eventCodes-care-communication-message\">MedComMessagingEventCodes</a> care-communication-message: Care Communication Message</p><h3>Destinations</h3><table class=\"grid\"><tr><td style=\"display: none\">-</td><td><b>Extension</b></td><td><b>Endpoint</b></td><td><b>Receiver</b></td></tr><tr><td style=\"display: none\">*</td><td/><td><a href=\"https://sor2.sum.dsdn.dk/#id=441211000016000\">https://sor2.sum.dsdn.dk/#id=441211000016000</a></td><td><a href=\"Organization-fe92c210-7725-4749-8045-37ed53878f26.html\">Organization Klinik for Ældresygdomme, AUH, Skejby</a></td></tr></table><p><b>sender</b>: <a href=\"Organization-74fb6fce-089e-444d-bca3-7d2673c6901f.html\">Organization Lægeklinik Ølgod</a></p><h3>Sources</h3><table class=\"grid\"><tr><td style=\"display: none\">-</td><td><b>Endpoint</b></td></tr><tr><td style=\"display: none\">*</td><td><a href=\"https://sor2.sum.dsdn.dk/#id=1339531000016004\">https://sor2.sum.dsdn.dk/#id=1339531000016004</a></td></tr></table><p><b>focus</b>: <a href=\"Communication-bc0c3901-87d3-4d90-ba32-9b02cc631de8.html\">Communication: identifier = urn:uuid:f3eb2617-5388-4210-ad77-fc1da77f9108; status = unknown; category = Examination Results</a></p><p><b>definition</b>: <code>http://medcomfhir.dk/ig/carecommunication/medcom-careCommunication-message-definition|4.0.0</code></p></div>"
      },
      "eventCoding" : {
        "system" : "http://medcomfhir.dk/ig/terminology/CodeSystem/medcom-messaging-eventCodes",
        "code" : "care-communication-message"
      },
      "destination" : [{
        "extension" : [{
          "url" : "http://medcomfhir.dk/ig/messaging/StructureDefinition/medcom-messaging-destinationUseExtension",
          "valueCoding" : {
            "system" : "http://medcomfhir.dk/ig/terminology/CodeSystem/medcom-messaging-destinationUse",
            "code" : "primary"
          }
        }],
        "endpoint" : "https://sor2.sum.dsdn.dk/#id=441211000016000",
        "receiver" : {
          "reference" : "Organization/fe92c210-7725-4749-8045-37ed53878f26"
        }
      }],
      "sender" : {
        "reference" : "Organization/74fb6fce-089e-444d-bca3-7d2673c6901f"
      },
      "source" : {
        "endpoint" : "https://sor2.sum.dsdn.dk/#id=1339531000016004"
      },
      "focus" : [{
        "reference" : "Communication/bc0c3901-87d3-4d90-ba32-9b02cc631de8"
      }],
      "definition" : "http://medcomfhir.dk/ig/carecommunication/medcom-careCommunication-message-definition|4.0.0"
    }
  },
  {
    "fullUrl" : "https://medcomfhir.dk/ig/carecommunication/Patient/aa6fad12-1876-4c7d-a955-06b78f85eb52",
    "resource" : {
      "resourceType" : "Patient",
      "id" : "aa6fad12-1876-4c7d-a955-06b78f85eb52",
      "meta" : {
        "profile" : ["http://medcomfhir.dk/ig/core/StructureDefinition/medcom-core-patient"]
      },
      "text" : {
        "status" : "generated",
        "div" : "<div xmlns=\"http://www.w3.org/1999/xhtml\"><a name=\"Patient_aa6fad12-1876-4c7d-a955-06b78f85eb52\"> </a><p class=\"res-header-id\"><b>Generated Narrative: Patient aa6fad12-1876-4c7d-a955-06b78f85eb52</b></p><a name=\"aa6fad12-1876-4c7d-a955-06b78f85eb52\"> </a><a name=\"hcaa6fad12-1876-4c7d-a955-06b78f85eb52\"> </a><a name=\"aa6fad12-1876-4c7d-a955-06b78f85eb52-da-DK\"> </a><p style=\"border: 1px #661aff solid; background-color: #e6e6ff; padding: 10px;\">Bruno Test Elmer (official) (no stated gender), DoB Unknown ( urn:oid:1.2.208.176.1.2#2509479989)</p><hr/><table class=\"grid\"><tr><td style=\"background-color: #f3f5da\" title=\"Ways to contact the Patient\">Contact Detail</td><td colspan=\"3\"><ul><li>ph: 47899878(Mobile)</li><li>Testpark Allé 48 Hillerød 3400 </li></ul></td></tr></table></div>"
      },
      "identifier" : [{
        "system" : "urn:oid:1.2.208.176.1.2",
        "value" : "2509479989"
      }],
      "name" : [{
        "use" : "official",
        "family" : "Elmer",
        "given" : ["Bruno",
        "Test"]
      }],
      "telecom" : [{
        "system" : "phone",
        "value" : "47899878",
        "use" : "mobile"
      }],
      "address" : [{
        "line" : ["Testpark Allé 48"],
        "city" : "Hillerød",
        "postalCode" : "3400"
      }]
    }
  },
  {
    "fullUrl" : "https://medcomfhir.dk/ig/carecommunication/Communication/bc0c3901-87d3-4d90-ba32-9b02cc631de8",
    "resource" : {
      "resourceType" : "Communication",
      "id" : "bc0c3901-87d3-4d90-ba32-9b02cc631de8",
      "meta" : {
        "profile" : ["http://medcomfhir.dk/ig/carecommunication/StructureDefinition/medcom-careCommunication-communication"]
      },
      "text" : {
        "status" : "generated",
        "div" : "<div xmlns=\"http://www.w3.org/1999/xhtml\"><a name=\"Communication_bc0c3901-87d3-4d90-ba32-9b02cc631de8\"> </a><p class=\"res-header-id\"><b>Generated Narrative: Communication bc0c3901-87d3-4d90-ba32-9b02cc631de8</b></p><a name=\"bc0c3901-87d3-4d90-ba32-9b02cc631de8\"> </a><a name=\"hcbc0c3901-87d3-4d90-ba32-9b02cc631de8\"> </a><a name=\"bc0c3901-87d3-4d90-ba32-9b02cc631de8-da-DK\"> </a><p><b>identifier</b>: urn:uuid:f3eb2617-5388-4210-ad77-fc1da77f9108</p><p><b>status</b>: Unknown</p><p><b>category</b>: <span title=\"Codes:{http://medcomfhir.dk/ig/terminology/CodeSystem/medcom-careCommunication-categoryCodes examination-results}\">Examination Results</span></p><p><b>subject</b>: <a href=\"Patient-aa6fad12-1876-4c7d-a955-06b78f85eb52.html\">Bruno Test Elmer (official) (no stated gender), DoB Unknown ( urn:oid:1.2.208.176.1.2#2509479989)</a></p><blockquote><p><b>payload</b></p><p><b>content</b>: Jeg håber denne besked er korrekt, hvis ikke, send da en negativ kvittering, tak. Vi ønsker information om de seneste undersøgelser udført på Bruno. På forhånd tak. Hilsen Michael, visitator.</p></blockquote></div>"
      },
      "identifier" : [{
        "value" : "urn:uuid:f3eb2617-5388-4210-ad77-fc1da77f9108"
      }],
      "status" : "unknown",
      "category" : [{
        "coding" : [{
          "system" : "http://medcomfhir.dk/ig/terminology/CodeSystem/medcom-careCommunication-categoryCodes",
          "code" : "examination-results"
        }]
      }],
      "subject" : {
        "reference" : "Patient/aa6fad12-1876-4c7d-a955-06b78f85eb52"
      },
      "payload" : [{
        "extension" : [{
          "url" : "http://medcomfhir.dk/ig/core/StructureDefinition/medcom-core-datetime-extension",
          "valueDateTime" : "2024-08-27T15:20:00+01:00"
        },
        {
          "url" : "http://medcomfhir.dk/ig/core/StructureDefinition/medcom-core-identifier-extension",
          "valueIdentifier" : {
            "assigner" : {
              "reference" : "Organization/fe92c210-7725-4749-8045-37ed53878f26"
            }
          }
        },
        {
          "url" : "http://medcomfhir.dk/ig/core/StructureDefinition/medcom-core-practitioner-extension",
          "valueReference" : {
            "reference" : "PractitionerRole/fb1abc8a-3238-4292-97dc-327291bf8573"
          }
        },
        {
          "url" : "http://medcomfhir.dk/ig/core/StructureDefinition/medcom-core-contact-extension",
          "valueContactPoint" : {
            "system" : "phone",
            "value" : "+4512345789"
          }
        }],
        "contentString" : "Jeg håber denne besked er korrekt, hvis ikke, send da en negativ kvittering, tak. Vi ønsker information om de seneste undersøgelser udført på Bruno. På forhånd tak. Hilsen Michael, visitator."
      }]
    }
  },
  {
    "fullUrl" : "https://medcomfhir.dk/ig/carecommunication/PractitionerRole/fb1abc8a-3238-4292-97dc-327291bf8573",
    "resource" : {
      "resourceType" : "PractitionerRole",
      "id" : "fb1abc8a-3238-4292-97dc-327291bf8573",
      "meta" : {
        "profile" : ["http://medcomfhir.dk/ig/core/StructureDefinition/medcom-core-practitionerrole"]
      },
      "text" : {
        "status" : "generated",
        "div" : "<div xmlns=\"http://www.w3.org/1999/xhtml\"><a name=\"PractitionerRole_fb1abc8a-3238-4292-97dc-327291bf8573\"> </a><p class=\"res-header-id\"><b>Generated Narrative: PractitionerRole fb1abc8a-3238-4292-97dc-327291bf8573</b></p><a name=\"fb1abc8a-3238-4292-97dc-327291bf8573\"> </a><a name=\"hcfb1abc8a-3238-4292-97dc-327291bf8573\"> </a><a name=\"fb1abc8a-3238-4292-97dc-327291bf8573-da-DK\"> </a><p><b>practitioner</b>: <a href=\"Practitioner-3835f51b-869e-4b52-b76d-ab2f906bdbe9.html\">Practitioner Michael Burns </a></p><p><b>code</b>: <span title=\"Codes:{http://medcomfhir.dk/ig/terminology/CodeSystem/medcom-core-PractitionerRolesSKSadministrativ laegesekretaer}\">Lægesekretær</span></p></div>"
      },
      "practitioner" : {
        "reference" : "Practitioner/3835f51b-869e-4b52-b76d-ab2f906bdbe9"
      },
      "code" : [{
        "coding" : [{
          "system" : "http://medcomfhir.dk/ig/terminology/CodeSystem/medcom-core-PractitionerRolesSKSadministrativ",
          "code" : "laegesekretaer"
        }]
      }]
    }
  },
  {
    "fullUrl" : "https://medcomfhir.dk/ig/carecommunication/Practitioner/3835f51b-869e-4b52-b76d-ab2f906bdbe9",
    "resource" : {
      "resourceType" : "Practitioner",
      "id" : "3835f51b-869e-4b52-b76d-ab2f906bdbe9",
      "meta" : {
        "profile" : ["http://medcomfhir.dk/ig/core/StructureDefinition/medcom-core-practitioner"]
      },
      "text" : {
        "status" : "generated",
        "div" : "<div xmlns=\"http://www.w3.org/1999/xhtml\"><a name=\"Practitioner_3835f51b-869e-4b52-b76d-ab2f906bdbe9\"> </a><p class=\"res-header-id\"><b>Generated Narrative: Practitioner 3835f51b-869e-4b52-b76d-ab2f906bdbe9</b></p><a name=\"3835f51b-869e-4b52-b76d-ab2f906bdbe9\"> </a><a name=\"hc3835f51b-869e-4b52-b76d-ab2f906bdbe9\"> </a><a name=\"3835f51b-869e-4b52-b76d-ab2f906bdbe9-da-DK\"> </a><p><b>name</b>: Michael Burns </p></div>"
      },
      "name" : [{
        "family" : "Burns",
        "given" : ["Michael"]
      }]
    }
  },
  {
    "fullUrl" : "https://medcomfhir.dk/ig/carecommunication/Organization/fe92c210-7725-4749-8045-37ed53878f26",
    "resource" : {
      "resourceType" : "Organization",
      "id" : "fe92c210-7725-4749-8045-37ed53878f26",
      "meta" : {
        "profile" : ["http://medcomfhir.dk/ig/messaging/StructureDefinition/medcom-messaging-organization"]
      },
      "text" : {
        "status" : "generated",
        "div" : "<div xmlns=\"http://www.w3.org/1999/xhtml\"><a name=\"Organization_fe92c210-7725-4749-8045-37ed53878f26\"> </a><p class=\"res-header-id\"><b>Generated Narrative: Organization fe92c210-7725-4749-8045-37ed53878f26</b></p><a name=\"fe92c210-7725-4749-8045-37ed53878f26\"> </a><a name=\"hcfe92c210-7725-4749-8045-37ed53878f26\"> </a><a name=\"fe92c210-7725-4749-8045-37ed53878f26-da-DK\"> </a><p><b>identifier</b>: <code>https://www.gs1.org/gln</code>/5790001987244, <code>urn:oid:1.2.208.176.1.1</code>/441211000016000</p><p><b>name</b>: Klinik for Ældresygdomme, AUH, Skejby</p></div>"
      },
      "identifier" : [{
        "system" : "https://www.gs1.org/gln",
        "value" : "5790001987244"
      },
      {
        "system" : "urn:oid:1.2.208.176.1.1",
        "value" : "441211000016000"
      }],
      "name" : "Klinik for Ældresygdomme, AUH, Skejby"
    }
  },
  {
    "fullUrl" : "https://medcomfhir.dk/ig/carecommunication/Organization/74fb6fce-089e-444d-bca3-7d2673c6901f",
    "resource" : {
      "resourceType" : "Organization",
      "id" : "74fb6fce-089e-444d-bca3-7d2673c6901f",
      "meta" : {
        "profile" : ["http://medcomfhir.dk/ig/messaging/StructureDefinition/medcom-messaging-organization"]
      },
      "text" : {
        "status" : "generated",
        "div" : "<div xmlns=\"http://www.w3.org/1999/xhtml\"><a name=\"Organization_74fb6fce-089e-444d-bca3-7d2673c6901f\"> </a><p class=\"res-header-id\"><b>Generated Narrative: Organization 74fb6fce-089e-444d-bca3-7d2673c6901f</b></p><a name=\"74fb6fce-089e-444d-bca3-7d2673c6901f\"> </a><a name=\"hc74fb6fce-089e-444d-bca3-7d2673c6901f\"> </a><a name=\"74fb6fce-089e-444d-bca3-7d2673c6901f-da-DK\"> </a><p><b>identifier</b>: <code>https://www.gs1.org/gln</code>/5790002626814, <code>urn:oid:1.2.208.176.1.1</code>/1339531000016004</p><p><b>name</b>: Lægeklinik Ølgod</p></div>"
      },
      "identifier" : [{
        "system" : "https://www.gs1.org/gln",
        "value" : "5790002626814"
      },
      {
        "system" : "urn:oid:1.2.208.176.1.1",
        "value" : "1339531000016004"
      }],
      "name" : "Lægeklinik Ølgod"
    }
  },
  {
    "fullUrl" : "https://medcomfhir.dk/ig/carecommunication/Provenance/ac6c0a2a-5586-411b-b54d-d2ae20b101ef",
    "resource" : {
      "resourceType" : "Provenance",
      "id" : "ac6c0a2a-5586-411b-b54d-d2ae20b101ef",
      "meta" : {
        "profile" : ["http://medcomfhir.dk/ig/carecommunication/StructureDefinition/medcom-careCommunication-provenance"]
      },
      "text" : {
        "status" : "generated",
        "div" : "<div xmlns=\"http://www.w3.org/1999/xhtml\"><a name=\"Provenance_ac6c0a2a-5586-411b-b54d-d2ae20b101ef\"> </a><p class=\"res-header-id\"><b>Generated Narrative: Provenance ac6c0a2a-5586-411b-b54d-d2ae20b101ef</b></p><a name=\"ac6c0a2a-5586-411b-b54d-d2ae20b101ef\"> </a><a name=\"hcac6c0a2a-5586-411b-b54d-d2ae20b101ef\"> </a><a name=\"ac6c0a2a-5586-411b-b54d-d2ae20b101ef-da-DK\"> </a><p>Provenance for <a href=\"MessageHeader-6550cb10-06e1-44fa-a66d-72f3f60c7c55.html\">MessageHeader: event[x] = Care Communication Message (MedComMessagingEventCodes#care-communication-message); definition = http://medcomfhir.dk/ig/carecommunication/medcom-careCommunication-message-definition|4.0.0</a></p><p>Summary</p><table class=\"grid\"><tr><td>Occurrence</td><td>2024-08-27 15:20:00+0100</td></tr><tr><td>Recorded</td><td>2024-08-27 15:20:00+0100</td></tr><tr><td>Activity</td><td><span title=\"Codes:{http://medcomfhir.dk/ig/terminology/CodeSystem/medcom-messaging-activityCodes new-message}\">A new message has been sent</span></td></tr></table><p><b>Agents</b></p><table class=\"grid\"><tr><td><b>who</b></td></tr><tr><td><a href=\"Organization-fe92c210-7725-4749-8045-37ed53878f26.html\">Organization Klinik for Ældresygdomme, AUH, Skejby</a></td></tr></table></div>"
      },
      "target" : [{
        "reference" : "MessageHeader/6550cb10-06e1-44fa-a66d-72f3f60c7c55"
      }],
      "occurredDateTime" : "2024-08-27T15:20:00+01:00",
      "recorded" : "2024-08-27T15:20:00+01:00",
      "activity" : {
        "coding" : [{
          "system" : "http://medcomfhir.dk/ig/terminology/CodeSystem/medcom-messaging-activityCodes",
          "code" : "new-message"
        }]
      },
      "agent" : [{
        "who" : {
          "reference" : "Organization/fe92c210-7725-4749-8045-37ed53878f26"
        }
      }]
    }
  }]
}