<?xml version="1.0" encoding="UTF-8"?>

<Bundle xmlns="http://hl7.org/fhir">
  <id value="5de12884-eae7-4fd3-ba4a-d8b56be4baff"/>
  <meta>
    <profile value="http://medcomfhir.dk/ig/carecommunication/StructureDefinition/medcom-careCommunication-message"/>
  </meta>
  <type value="message"/>
  <timestamp value="2024-08-26T15:20:00+01:00"/>
  <entry>
    <fullUrl value="https://medcomfhir.dk/ig/carecommunication/MessageHeader/b8040f0c-2921-4da1-a481-023baa352b01"/>
    <resource>
      <MessageHeader>
        <id value="b8040f0c-2921-4da1-a481-023baa352b01"/>
        <meta>
          <profile value="http://medcomfhir.dk/ig/carecommunication/StructureDefinition/medcom-careCommunication-messageHeader"/>
        </meta>
        <text>
          <status value="generated"/><div xmlns="http://www.w3.org/1999/xhtml"><a name="MessageHeader_b8040f0c-2921-4da1-a481-023baa352b01"> </a><p class="res-header-id"><b>Generated Narrative: MessageHeader b8040f0c-2921-4da1-a481-023baa352b01</b></p><a name="b8040f0c-2921-4da1-a481-023baa352b01"> </a><a name="hcb8040f0c-2921-4da1-a481-023baa352b01"> </a><a name="b8040f0c-2921-4da1-a481-023baa352b01-da-DK"> </a><p><b>event</b>: <a href="http://medcomfhir.dk/ig/terminology/1.7.0/CodeSystem-medcom-messaging-eventCodes.html#medcom-messaging-eventCodes-care-communication-message">MedComMessagingEventCodes</a> care-communication-message: Care Communication Message</p><h3>Destinations</h3><table class="grid"><tr><td style="display: none">-</td><td><b>Extension</b></td><td><b>Endpoint</b></td><td><b>Receiver</b></td></tr><tr><td style="display: none">*</td><td/><td><a href="https://sor2.sum.dsdn.dk/#id=441211000016000">https://sor2.sum.dsdn.dk/#id=441211000016000</a></td><td><a href="Organization-1cc8e567-bf4a-4dc6-b427-f23942cb4661.html">Organization Klinik for Ældresygdomme, AUH, Skejby</a></td></tr></table><p><b>sender</b>: <a href="Organization-77dcf3fd-9ee6-4e64-9ab4-b1619bae5811.html">Organization Lægeklinik Ølgod</a></p><h3>Sources</h3><table class="grid"><tr><td style="display: none">-</td><td><b>Endpoint</b></td></tr><tr><td style="display: none">*</td><td><a href="https://sor2.sum.dsdn.dk/#id=1339531000016004">https://sor2.sum.dsdn.dk/#id=1339531000016004</a></td></tr></table><p><b>focus</b>: <a href="Communication-a31cae55-2d49-41f2-ae74-562dc4547572.html">Communication: identifier = urn:uuid:9b35b179-2436-4422-9873-bbf9dff9765a; status = unknown; category = Other; topic = </a></p><p><b>definition</b>: <code>http://medcomfhir.dk/ig/carecommunication/medcom-careCommunication-message-definition|4.0.0</code></p></div>
        </text>
        <eventCoding>
          <system value="http://medcomfhir.dk/ig/terminology/CodeSystem/medcom-messaging-eventCodes"/>
          <code value="care-communication-message"/>
        </eventCoding>
        <destination>
          <extension url="http://medcomfhir.dk/ig/messaging/StructureDefinition/medcom-messaging-destinationUseExtension">
            <valueCoding>
              <system value="http://medcomfhir.dk/ig/terminology/CodeSystem/medcom-messaging-destinationUse"/>
              <code value="primary"/>
            </valueCoding>
          </extension>
          <endpoint value="https://sor2.sum.dsdn.dk/#id=441211000016000"/>
          <receiver>
            <reference value="Organization/1cc8e567-bf4a-4dc6-b427-f23942cb4661"/>
          </receiver>
        </destination>
        <sender>
          <reference value="Organization/77dcf3fd-9ee6-4e64-9ab4-b1619bae5811"/>
        </sender>
        <source>
          <endpoint value="https://sor2.sum.dsdn.dk/#id=1339531000016004"/>
        </source>
        <focus>
          <reference value="Communication/a31cae55-2d49-41f2-ae74-562dc4547572"/>
        </focus>
        <definition value="http://medcomfhir.dk/ig/carecommunication/medcom-careCommunication-message-definition|4.0.0"/>
      </MessageHeader>
    </resource>
  </entry>
  <entry>
    <fullUrl value="https://medcomfhir.dk/ig/carecommunication/Patient/73782c2a-c9be-4ca6-9c70-020c0bd83511"/>
    <resource>
      <Patient>
        <id value="73782c2a-c9be-4ca6-9c70-020c0bd83511"/>
        <meta>
          <profile value="http://medcomfhir.dk/ig/core/StructureDefinition/medcom-core-patient"/>
        </meta>
        <text>
          <status value="generated"/><div xmlns="http://www.w3.org/1999/xhtml"><a name="Patient_73782c2a-c9be-4ca6-9c70-020c0bd83511"> </a><p class="res-header-id"><b>Generated Narrative: Patient 73782c2a-c9be-4ca6-9c70-020c0bd83511</b></p><a name="73782c2a-c9be-4ca6-9c70-020c0bd83511"> </a><a name="hc73782c2a-c9be-4ca6-9c70-020c0bd83511"> </a><a name="73782c2a-c9be-4ca6-9c70-020c0bd83511-da-DK"> </a><p style="border: 1px #661aff solid; background-color: #e6e6ff; padding: 10px;">Bruno Test Elmer (official) (no stated gender), DoB Unknown ( urn:oid:1.2.208.176.1.2#2509479989)</p><hr/></div>
        </text>
        <identifier>
          <system value="urn:oid:1.2.208.176.1.2"/>
          <value value="2509479989"/>
        </identifier>
        <name>
          <use value="official"/>
          <family value="Elmer"/>
          <given value="Bruno"/>
          <given value="Test"/>
        </name>
      </Patient>
    </resource>
  </entry>
  <entry>
    <fullUrl value="https://medcomfhir.dk/ig/carecommunication/Communication/a31cae55-2d49-41f2-ae74-562dc4547572"/>
    <resource>
      <Communication>
        <id value="a31cae55-2d49-41f2-ae74-562dc4547572"/>
        <meta>
          <profile value="http://medcomfhir.dk/ig/carecommunication/StructureDefinition/medcom-careCommunication-communication"/>
        </meta>
        <text>
          <status value="generated"/><div xmlns="http://www.w3.org/1999/xhtml"><a name="Communication_a31cae55-2d49-41f2-ae74-562dc4547572"> </a><p class="res-header-id"><b>Generated Narrative: Communication a31cae55-2d49-41f2-ae74-562dc4547572</b></p><a name="a31cae55-2d49-41f2-ae74-562dc4547572"> </a><a name="hca31cae55-2d49-41f2-ae74-562dc4547572"> </a><a name="a31cae55-2d49-41f2-ae74-562dc4547572-da-DK"> </a><p><b>identifier</b>: urn:uuid:9b35b179-2436-4422-9873-bbf9dff9765a</p><p><b>status</b>: Unknown</p><p><b>category</b>: <span title="Codes:{http://medcomfhir.dk/ig/terminology/CodeSystem/medcom-careCommunication-categoryCodes other}">Other</span></p><p><b>subject</b>: <a href="Patient-73782c2a-c9be-4ca6-9c70-020c0bd83511.html">Bruno Test Elmer (official) (no stated gender), DoB Unknown ( urn:oid:1.2.208.176.1.2#2509479989)</a></p><p><b>topic</b>: <span title="Codes:">Dublikater</span></p><blockquote><p><b>payload</b></p><p><b>content</b>: Hej, jeg vil blot sikre mig, at denne meddelelse ikke vises to gange. Alt godt med Bruno. Mvh. Michelle.</p></blockquote></div>
        </text>
        <identifier>
          <value value="urn:uuid:9b35b179-2436-4422-9873-bbf9dff9765a"/>
        </identifier>
        <status value="unknown"/>
        <category>
          <coding>
            <system value="http://medcomfhir.dk/ig/terminology/CodeSystem/medcom-careCommunication-categoryCodes"/>
            <code value="other"/>
          </coding>
        </category>
        <subject>
          <reference value="Patient/73782c2a-c9be-4ca6-9c70-020c0bd83511"/>
        </subject>
        <topic>
          <text value="Dublikater"/>
        </topic>
        <payload>
          <extension url="http://medcomfhir.dk/ig/core/StructureDefinition/medcom-core-datetime-extension">
            <valueDateTime value="2024-08-26T15:20:00+01:00"/>
          </extension>
          <extension url="http://medcomfhir.dk/ig/core/StructureDefinition/medcom-core-identifier-extension">
            <valueIdentifier>
              <value value="urn:uuid:69badd84-ec6d-475f-bedf-d6671b11865d"/>
              <assigner>
                <reference value="Organization/1cc8e567-bf4a-4dc6-b427-f23942cb4661"/>
              </assigner>
            </valueIdentifier>
          </extension>
          <extension url="http://medcomfhir.dk/ig/core/StructureDefinition/medcom-core-practitioner-extension">
            <valueReference>
              <reference value="PractitionerRole/01b4af5e-314a-4992-9683-67cc2876fecf"/>
            </valueReference>
          </extension>
          <extension url="http://medcomfhir.dk/ig/core/StructureDefinition/medcom-core-contact-extension">
            <valueContactPoint>
              <system value="phone"/>
              <value value="+4512345789"/>
            </valueContactPoint>
          </extension>
          <contentString value="Hej, jeg vil blot sikre mig, at denne meddelelse ikke vises to gange. Alt godt med Bruno. Mvh. Michelle."/>
        </payload>
      </Communication>
    </resource>
  </entry>
  <entry>
    <fullUrl value="https://medcomfhir.dk/ig/carecommunication/PractitionerRole/01b4af5e-314a-4992-9683-67cc2876fecf"/>
    <resource>
      <PractitionerRole>
        <id value="01b4af5e-314a-4992-9683-67cc2876fecf"/>
        <meta>
          <profile value="http://medcomfhir.dk/ig/core/StructureDefinition/medcom-core-practitionerrole"/>
        </meta>
        <text>
          <status value="generated"/><div xmlns="http://www.w3.org/1999/xhtml"><a name="PractitionerRole_01b4af5e-314a-4992-9683-67cc2876fecf"> </a><p class="res-header-id"><b>Generated Narrative: PractitionerRole 01b4af5e-314a-4992-9683-67cc2876fecf</b></p><a name="01b4af5e-314a-4992-9683-67cc2876fecf"> </a><a name="hc01b4af5e-314a-4992-9683-67cc2876fecf"> </a><a name="01b4af5e-314a-4992-9683-67cc2876fecf-da-DK"> </a><p><b>practitioner</b>: <a href="Practitioner-9f50e7b5-8da2-4832-bef8-eed9dc69ec6f.html">Practitioner Michelle Burns </a></p><p><b>code</b>: <span title="Codes:{http://medcomfhir.dk/ig/terminology/CodeSystem/medcom-core-PractitionerRolesSKSadministrativ laegesekretaer}">Lægesekretær</span></p></div>
        </text>
        <practitioner>
          <reference value="Practitioner/9f50e7b5-8da2-4832-bef8-eed9dc69ec6f"/>
        </practitioner>
        <code>
          <coding>
            <system value="http://medcomfhir.dk/ig/terminology/CodeSystem/medcom-core-PractitionerRolesSKSadministrativ"/>
            <code value="laegesekretaer"/>
          </coding>
        </code>
      </PractitionerRole>
    </resource>
  </entry>
  <entry>
    <fullUrl value="https://medcomfhir.dk/ig/carecommunication/Practitioner/9f50e7b5-8da2-4832-bef8-eed9dc69ec6f"/>
    <resource>
      <Practitioner>
        <id value="9f50e7b5-8da2-4832-bef8-eed9dc69ec6f"/>
        <meta>
          <profile value="http://medcomfhir.dk/ig/core/StructureDefinition/medcom-core-practitioner"/>
        </meta>
        <text>
          <status value="generated"/><div xmlns="http://www.w3.org/1999/xhtml"><a name="Practitioner_9f50e7b5-8da2-4832-bef8-eed9dc69ec6f"> </a><p class="res-header-id"><b>Generated Narrative: Practitioner 9f50e7b5-8da2-4832-bef8-eed9dc69ec6f</b></p><a name="9f50e7b5-8da2-4832-bef8-eed9dc69ec6f"> </a><a name="hc9f50e7b5-8da2-4832-bef8-eed9dc69ec6f"> </a><a name="9f50e7b5-8da2-4832-bef8-eed9dc69ec6f-da-DK"> </a><p><b>name</b>: Michelle Burns </p></div>
        </text>
        <name>
          <family value="Burns"/>
          <given value="Michelle"/>
        </name>
      </Practitioner>
    </resource>
  </entry>
  <entry>
    <fullUrl value="https://medcomfhir.dk/ig/carecommunication/Organization/1cc8e567-bf4a-4dc6-b427-f23942cb4661"/>
    <resource>
      <Organization>
        <id value="1cc8e567-bf4a-4dc6-b427-f23942cb4661"/>
        <meta>
          <profile value="http://medcomfhir.dk/ig/messaging/StructureDefinition/medcom-messaging-organization"/>
        </meta>
        <text>
          <status value="generated"/><div xmlns="http://www.w3.org/1999/xhtml"><a name="Organization_1cc8e567-bf4a-4dc6-b427-f23942cb4661"> </a><p class="res-header-id"><b>Generated Narrative: Organization 1cc8e567-bf4a-4dc6-b427-f23942cb4661</b></p><a name="1cc8e567-bf4a-4dc6-b427-f23942cb4661"> </a><a name="hc1cc8e567-bf4a-4dc6-b427-f23942cb4661"> </a><a name="1cc8e567-bf4a-4dc6-b427-f23942cb4661-da-DK"> </a><p><b>identifier</b>: <code>https://www.gs1.org/gln</code>/5790001987244, <code>urn:oid:1.2.208.176.1.1</code>/441211000016000</p><p><b>name</b>: Klinik for Ældresygdomme, AUH, Skejby</p></div>
        </text>
        <identifier>
          <system value="https://www.gs1.org/gln"/>
          <value value="5790001987244"/>
        </identifier>
        <identifier>
          <system value="urn:oid:1.2.208.176.1.1"/>
          <value value="441211000016000"/>
        </identifier>
        <name value="Klinik for Ældresygdomme, AUH, Skejby"/>
      </Organization>
    </resource>
  </entry>
  <entry>
    <fullUrl value="https://medcomfhir.dk/ig/carecommunication/Organization/77dcf3fd-9ee6-4e64-9ab4-b1619bae5811"/>
    <resource>
      <Organization>
        <id value="77dcf3fd-9ee6-4e64-9ab4-b1619bae5811"/>
        <meta>
          <profile value="http://medcomfhir.dk/ig/messaging/StructureDefinition/medcom-messaging-organization"/>
        </meta>
        <text>
          <status value="generated"/><div xmlns="http://www.w3.org/1999/xhtml"><a name="Organization_77dcf3fd-9ee6-4e64-9ab4-b1619bae5811"> </a><p class="res-header-id"><b>Generated Narrative: Organization 77dcf3fd-9ee6-4e64-9ab4-b1619bae5811</b></p><a name="77dcf3fd-9ee6-4e64-9ab4-b1619bae5811"> </a><a name="hc77dcf3fd-9ee6-4e64-9ab4-b1619bae5811"> </a><a name="77dcf3fd-9ee6-4e64-9ab4-b1619bae5811-da-DK"> </a><p><b>identifier</b>: <code>https://www.gs1.org/gln</code>/5790002626814, <code>urn:oid:1.2.208.176.1.1</code>/1339531000016004</p><p><b>name</b>: Lægeklinik Ølgod</p></div>
        </text>
        <identifier>
          <system value="https://www.gs1.org/gln"/>
          <value value="5790002626814"/>
        </identifier>
        <identifier>
          <system value="urn:oid:1.2.208.176.1.1"/>
          <value value="1339531000016004"/>
        </identifier>
        <name value="Lægeklinik Ølgod"/>
      </Organization>
    </resource>
  </entry>
  <entry>
    <fullUrl value="https://medcomfhir.dk/ig/carecommunication/Provenance/ddc0fc7b-0ad1-43e1-b9c4-b1a3d9ef1c50"/>
    <resource>
      <Provenance>
        <id value="ddc0fc7b-0ad1-43e1-b9c4-b1a3d9ef1c50"/>
        <meta>
          <profile value="http://medcomfhir.dk/ig/carecommunication/StructureDefinition/medcom-careCommunication-provenance"/>
        </meta>
        <text>
          <status value="generated"/><div xmlns="http://www.w3.org/1999/xhtml"><a name="Provenance_ddc0fc7b-0ad1-43e1-b9c4-b1a3d9ef1c50"> </a><p class="res-header-id"><b>Generated Narrative: Provenance ddc0fc7b-0ad1-43e1-b9c4-b1a3d9ef1c50</b></p><a name="ddc0fc7b-0ad1-43e1-b9c4-b1a3d9ef1c50"> </a><a name="hcddc0fc7b-0ad1-43e1-b9c4-b1a3d9ef1c50"> </a><a name="ddc0fc7b-0ad1-43e1-b9c4-b1a3d9ef1c50-da-DK"> </a><p>Provenance for <a href="MessageHeader-b8040f0c-2921-4da1-a481-023baa352b01.html">MessageHeader: event[x] = Care Communication Message (MedComMessagingEventCodes#care-communication-message); definition = http://medcomfhir.dk/ig/carecommunication/medcom-careCommunication-message-definition|4.0.0</a></p><p>Summary</p><table class="grid"><tr><td>Occurrence</td><td>2024-08-26 15:20:00+0100</td></tr><tr><td>Recorded</td><td>2024-08-26 15:20:00+0100</td></tr><tr><td>Activity</td><td><span title="Codes:{http://medcomfhir.dk/ig/terminology/CodeSystem/medcom-messaging-activityCodes new-message}">A new message has been sent</span></td></tr></table><p><b>Agents</b></p><table class="grid"><tr><td><b>who</b></td></tr><tr><td><a href="Organization-1cc8e567-bf4a-4dc6-b427-f23942cb4661.html">Organization Klinik for Ældresygdomme, AUH, Skejby</a></td></tr></table></div>
        </text>
        <target>
          <reference value="MessageHeader/b8040f0c-2921-4da1-a481-023baa352b01"/>
        </target>
        <occurredDateTime value="2024-08-26T15:20:00+01:00"/>
        <recorded value="2024-08-26T15:20:00+01:00"/>
        <activity>
          <coding>
            <system value="http://medcomfhir.dk/ig/terminology/CodeSystem/medcom-messaging-activityCodes"/>
            <code value="new-message"/>
          </coding>
        </activity>
        <agent>
          <who>
            <reference value="Organization/1cc8e567-bf4a-4dc6-b427-f23942cb4661"/>
          </who>
        </agent>
        <entity>
          <role value="source"/>
          <what>
            <identifier>
              <value value="urn:uuid:69badd84-ec6d-475f-bedf-d6671b11865d"/>
            </identifier>
          </what>
        </entity>
      </Provenance>
    </resource>
  </entry>
</Bundle>